[{"rt":1905,"stimulus":"<p style=\"font-size:60px;\">Click below to begin.</p>","response":0,"trial_type":"html-button-response","trial_index":0,"time_elapsed":1913,"internal_node_id":"0.0-0.0"},{"rt":20981,"stimulus":"../standaloneApp/binary_ternary.mp3","response":0,"trial_type":"audio-button-response","trial_index":1,"time_elapsed":23809,"internal_node_id":"0.0-1.0","device_motion_data":[{"x":0,"y":0,"z":0,"interval":16,"t":203,"event":"devicemotion"},{"x":0,"y":0,"z":0,"interval":16,"t":219,"event":"devicemotion"},{"x":0,"y":0.2,"z":0.2,"interval":16,"t":236,"event":"devicemotion"},{"x":-0.30000000000000004,"y":0.9,"z":0.7000000000000001,"interval":16,"t":253,"event":"devicemotion"},{"x":-0.9,"y":1.5,"z":0.9,"interval":16,"t":270,"event":"devicemotion"},{"x":-1,"y":2.1,"z":1.2000000000000002,"interval":16,"t":286,"event":"devicemotion"},{"x":-1,"y":2.1,"z":1.2000000000000002,"interval":16,"t":303,"event":"devicemotion"},{"x":-1.1,"y":2.6,"z":1.3,"interval":16,"t":320,"event":"devicemotion"},{"x":-1.2000000000000002,"y":2.7,"z":1,"interval":16,"t":336,"event":"devicemotion"},{"x":-1.3,"y":2.9000000000000004,"z":0.9,"interval":16,"t":355,"event":"devicemotion"},{"x":-1.4000000000000001,"y":2.8000000000000003,"z":0.2,"interval":16,"t":370,"event":"devicemotion"},{"x":-1,"y":2.4000000000000004,"z":0,"interval":16,"t":391,"event":"devicemotion"},{"x":-1,"y":2.4000000000000004,"z":0,"interval":16,"t":404,"event":"devicemotion"},{"x":-0.4,"y":1.7000000000000002,"z":0.2,"interval":16,"t":420,"event":"devicemotion"},{"x":-0.30000000000000004,"y":1,"z":0.2,"interval":16,"t":436,"event":"devicemotion"},{"x":0.4,"y":0.5,"z":-0.2,"interval":16,"t":453,"event":"devicemotion"},{"x":0.5,"y":0.2,"z":-0.6000000000000001,"interval":16,"t":470,"event":"devicemotion"},{"x":0.8,"y":0.1,"z":-0.5,"interval":16,"t":486,"event":"devicemotion"},{"x":0.8,"y":0.1,"z":-0.5,"interval":16,"t":503,"event":"devicemotion"},{"x":0.6000000000000001,"y":0.1,"z":-0.5,"interval":16,"t":520,"event":"devicemotion"},{"x":0.30000000000000004,"y":0.1,"z":-0.6000000000000001,"interval":16,"t":536,"event":"devicemotion"},{"x":-0.2,"y":0.1,"z":-0.5,"interval":16,"t":553,"event":"devicemotion"},{"x":-0.2,"y":-0.1,"z":-0.4,"interval":16,"t":570,"event":"devicemotion"},{"x":-0.2,"y":-0.1,"z":-0.4,"interval":16,"t":587,"event":"devicemotion"},{"x":-0.1,"y":-0.2,"z":-0.5,"interval":16,"t":604,"event":"devicemotion"},{"x":0,"y":-0.30000000000000004,"z":-0.6000000000000001,"interval":16,"t":620,"event":"devicemotion"},{"x":0.1,"y":-0.30000000000000004,"z":-0.5,"interval":16,"t":637,"event":"devicemotion"},{"x":-0.2,"y":-0.2,"z":-0.30000000000000004,"interval":16,"t":653,"event":"devicemotion"},{"x":-0.2,"y":-0.2,"z":-0.30000000000000004,"interval":16,"t":671,"event":"devicemotion"},{"x":0.1,"y":-0.4,"z":-0.6000000000000001,"interval":16,"t":690,"event":"devicemotion"},{"x":0.4,"y":-0.6000000000000001,"z":-0.8,"interval":16,"t":703,"event":"devicemotion"},{"x":0.30000000000000004,"y":-0.7000000000000001,"z":-0.7000000000000001,"interval":16,"t":720,"event":"devicemotion"},{"x":0.5,"y":-0.7000000000000001,"z":-0.7000000000000001,"interval":16,"t":736,"event":"devicemotion"},{"x":0.5,"y":-0.7000000000000001,"z":-0.7000000000000001,"interval":16,"t":753,"event":"devicemotion"},{"x":0.5,"y":-0.7000000000000001,"z":-0.7000000000000001,"interval":16,"t":770,"event":"devicemotion"},{"x":0.2,"y":-0.6000000000000001,"z":-0.6000000000000001,"interval":16,"t":791,"event":"devicemotion"},{"x":0.6000000000000001,"y":-0.7000000000000001,"z":-0.4,"interval":16,"t":803,"event":"devicemotion"},{"x":0.7000000000000001,"y":-0.7000000000000001,"z":-0.7000000000000001,"interval":16,"t":819,"event":"devicemotion"},{"x":0.9,"y":-0.7000000000000001,"z":-0.8,"interval":16,"t":838,"event":"devicemotion"},{"x":1.1,"y":-1,"z":-0.7000000000000001,"interval":16,"t":853,"event":"devicemotion"},{"x":1.1,"y":-1,"z":-0.7000000000000001,"interval":16,"t":872,"event":"devicemotion"},{"x":0.9,"y":-1.3,"z":-0.9,"interval":16,"t":887,"event":"devicemotion"},{"x":0.8,"y":-1.3,"z":-0.9,"interval":16,"t":903,"event":"devicemotion"},{"x":0.9,"y":-1.7000000000000002,"z":-0.9,"interval":16,"t":919,"event":"devicemotion"},{"x":0.7000000000000001,"y":-1.8,"z":-0.6000000000000001,"interval":16,"t":936,"event":"devicemotion"},{"x":0.8,"y":-1.8,"z":-0.6000000000000001,"interval":16,"t":952,"event":"devicemotion"},{"x":0.8,"y":-1.8,"z":-0.6000000000000001,"interval":16,"t":969,"event":"devicemotion"},{"x":0.7000000000000001,"y":-1.8,"z":-0.4,"interval":16,"t":986,"event":"devicemotion"},{"x":0.30000000000000004,"y":-2,"z":-0.5,"interval":16,"t":1004,"event":"devicemotion"},{"x":0.30000000000000004,"y":-2,"z":-0.5,"interval":16,"t":1020,"event":"devicemotion"},{"x":0.4,"y":-2.2,"z":-0.8,"interval":16,"t":1036,"event":"devicemotion"},{"x":0.9,"y":-2.5,"z":-1,"interval":16,"t":1053,"event":"devicemotion"},{"x":0.9,"y":-2.5,"z":-1,"interval":16,"t":1070,"event":"devicemotion"},{"x":1,"y":-2.5,"z":-1.2000000000000002,"interval":16,"t":1086,"event":"devicemotion"},{"x":0.8,"y":-2.1,"z":-1.3,"interval":16,"t":1103,"event":"devicemotion"},{"x":0.1,"y":-1.6,"z":-1.2000000000000002,"interval":16,"t":1120,"event":"devicemotion"},{"x":0,"y":-1.3,"z":-0.8,"interval":16,"t":1136,"event":"devicemotion"},{"x":-0.1,"y":-1.3,"z":-0.5,"interval":16,"t":1153,"event":"devicemotion"},{"x":-0.1,"y":-1.3,"z":-0.5,"interval":16,"t":1169,"event":"devicemotion"},{"x":0,"y":-1.2000000000000002,"z":0,"interval":16,"t":1186,"event":"devicemotion"},{"x":-0.1,"y":-0.2,"z":0.7000000000000001,"interval":16,"t":1203,"event":"devicemotion"},{"x":-0.7000000000000001,"y":1.1,"z":1.3,"interval":16,"t":1219,"event":"devicemotion"},{"x":-1.6,"y":2.5,"z":1.7000000000000002,"interval":16,"t":1236,"event":"devicemotion"},{"x":-1.6,"y":2.5,"z":1.7000000000000002,"interval":16,"t":1253,"event":"devicemotion"},{"x":-1.9000000000000001,"y":3.5,"z":2,"interval":16,"t":1271,"event":"devicemotion"},{"x":-2,"y":3.5,"z":2,"interval":16,"t":1286,"event":"devicemotion"},{"x":-1.7000000000000002,"y":3.7,"z":1.8,"interval":16,"t":1303,"event":"devicemotion"},{"x":-1.4000000000000001,"y":3.6,"z":1.5,"interval":16,"t":1320,"event":"devicemotion"},{"x":-0.9,"y":3.7,"z":1.5,"interval":16,"t":1336,"event":"devicemotion"},{"x":-1,"y":3.7,"z":1,"interval":16,"t":1353,"event":"devicemotion"},{"x":-1,"y":3.7,"z":1,"interval":16,"t":1371,"event":"devicemotion"},{"x":-0.8,"y":3.4000000000000004,"z":0.6000000000000001,"interval":16,"t":1389,"event":"devicemotion"},{"x":-0.5,"y":2.9000000000000004,"z":0.9,"interval":16,"t":1404,"event":"devicemotion"},{"x":-0.4,"y":2.3000000000000003,"z":0.7000000000000001,"interval":16,"t":1420,"event":"devicemotion"},{"x":-0.4,"y":2.3000000000000003,"z":0.7000000000000001,"interval":16,"t":1437,"event":"devicemotion"},{"x":0.1,"y":1.6,"z":0.1,"interval":16,"t":1453,"event":"devicemotion"},{"x":0.30000000000000004,"y":0.9,"z":0,"interval":16,"t":1470,"event":"devicemotion"},{"x":0.4,"y":0.4,"z":-0.30000000000000004,"interval":16,"t":1487,"event":"devicemotion"},{"x":0.7000000000000001,"y":-0.1,"z":-0.7000000000000001,"interval":16,"t":1503,"event":"devicemotion"},{"x":0.4,"y":-0.30000000000000004,"z":-0.7000000000000001,"interval":16,"t":1519,"event":"devicemotion"},{"x":0.5,"y":-0.4,"z":-0.5,"interval":16,"t":1536,"event":"devicemotion"},{"x":0.5,"y":-0.4,"z":-0.5,"interval":16,"t":1553,"event":"devicemotion"},{"x":0.2,"y":-0.30000000000000004,"z":-0.6000000000000001,"interval":16,"t":1570,"event":"devicemotion"},{"x":0,"y":-0.2,"z":-1.1,"interval":16,"t":1587,"event":"devicemotion"},{"x":0.2,"y":-0.30000000000000004,"z":-1.2000000000000002,"interval":16,"t":1603,"event":"devicemotion"},{"x":0.30000000000000004,"y":-0.30000000000000004,"z":-1,"interval":16,"t":1619,"event":"devicemotion"},{"x":0.6000000000000001,"y":-0.5,"z":-1,"interval":16,"t":1644,"event":"devicemotion"},{"x":0.6000000000000001,"y":-0.5,"z":-1,"interval":16,"t":1653,"event":"devicemotion"},{"x":0.30000000000000004,"y":-0.5,"z":-1.3,"interval":16,"t":1670,"event":"devicemotion"},{"x":0.6000000000000001,"y":-0.7000000000000001,"z":-1,"interval":16,"t":1688,"event":"devicemotion"},{"x":1.1,"y":-0.8,"z":-0.6000000000000001,"interval":16,"t":1703,"event":"devicemotion"},{"x":1.1,"y":-0.8,"z":-0.6000000000000001,"interval":16,"t":1719,"event":"devicemotion"},{"x":0.5,"y":-0.7000000000000001,"z":-0.6000000000000001,"interval":16,"t":1737,"event":"devicemotion"},{"x":0.5,"y":-0.7000000000000001,"z":-0.6000000000000001,"interval":16,"t":1753,"event":"devicemotion"},{"x":0.2,"y":-0.6000000000000001,"z":-0.4,"interval":16,"t":1770,"event":"devicemotion"},{"x":0.30000000000000004,"y":-0.5,"z":-0.4,"interval":16,"t":1786,"event":"devicemotion"},{"x":0.4,"y":-0.7000000000000001,"z":-0.5,"interval":16,"t":1808,"event":"devicemotion"},{"x":0.2,"y":-0.8,"z":-0.2,"interval":16,"t":1819,"event":"devicemotion"},{"x":0.2,"y":-1,"z":0.1,"interval":16,"t":1836,"event":"devicemotion"},{"x":0.2,"y":-1,"z":0.1,"interval":16,"t":1853,"event":"devicemotion"},{"x":0.4,"y":-1.1,"z":0,"interval":16,"t":1870,"event":"devicemotion"},{"x":0.4,"y":-1.4000000000000001,"z":-0.2,"interval":16,"t":1886,"event":"devicemotion"},{"x":0.7000000000000001,"y":-1.6,"z":0,"interval":16,"t":1903,"event":"devicemotion"},{"x":0.30000000000000004,"y":-1.6,"z":-0.1,"interval":16,"t":1920,"event":"devicemotion"},{"x":0.1,"y":-1.4000000000000001,"z":-0.30000000000000004,"interval":16,"t":1936,"event":"devicemotion"},{"x":0.1,"y":-1.4000000000000001,"z":-0.30000000000000004,"interval":16,"t":1953,"event":"devicemotion"},{"x":-0.1,"y":-1.5,"z":-0.5,"interval":16,"t":1969,"event":"devicemotion"},{"x":0.1,"y":-1.7000000000000002,"z":-0.5,"interval":16,"t":1986,"event":"devicemotion"},{"x":0.4,"y":-1.9000000000000001,"z":-0.6000000000000001,"interval":16,"t":2003,"event":"devicemotion"},{"x":0.4,"y":-1.9000000000000001,"z":-0.8,"interval":16,"t":2020,"event":"devicemotion"},{"x":0.4,"y":-1.9000000000000001,"z":-0.8,"interval":16,"t":2036,"event":"devicemotion"},{"x":0.5,"y":-1.7000000000000002,"z":-1,"interval":16,"t":2053,"event":"devicemotion"},{"x":0.6000000000000001,"y":-1.6,"z":-1.2000000000000002,"interval":16,"t":2070,"event":"devicemotion"},{"x":0.7000000000000001,"y":-1.4000000000000001,"z":-1.1,"interval":16,"t":2086,"event":"devicemotion"},{"x":0.5,"y":-0.9,"z":-0.7000000000000001,"interval":16,"t":2103,"event":"devicemotion"},{"x":-0.1,"y":-0.5,"z":-0.8,"interval":16,"t":2121,"event":"devicemotion"},{"x":-0.1,"y":-0.5,"z":-0.8,"interval":16,"t":2136,"event":"devicemotion"},{"x":-0.9,"y":-0.5,"z":-1,"interval":16,"t":2153,"event":"devicemotion"},{"x":-0.4,"y":-0.9,"z":-0.7000000000000001,"interval":16,"t":2170,"event":"devicemotion"},{"x":0.7000000000000001,"y":-1.5,"z":-0.2,"interval":16,"t":2186,"event":"devicemotion"},{"x":0.7000000000000001,"y":-1.5,"z":-0.2,"interval":16,"t":2204,"event":"devicemotion"},{"x":1.5,"y":-1.5,"z":0.5,"interval":16,"t":2220,"event":"devicemotion"},{"x":0.7000000000000001,"y":-1.2000000000000002,"z":1.2000000000000002,"interval":16,"t":2239,"event":"devicemotion"},{"x":-0.8,"y":-0.30000000000000004,"z":1.9000000000000001,"interval":16,"t":2253,"event":"devicemotion"},{"x":-0.7000000000000001,"y":0.30000000000000004,"z":1.9000000000000001,"interval":16,"t":2269,"event":"devicemotion"},{"x":-0.7000000000000001,"y":0.9,"z":2.2,"interval":16,"t":2288,"event":"devicemotion"},{"x":-0.8,"y":2.1,"z":2.7,"interval":16,"t":2303,"event":"devicemotion"},{"x":-0.8,"y":2.1,"z":2.7,"interval":16,"t":2321,"event":"devicemotion"},{"x":-1.5,"y":3.5,"z":3.2,"interval":16,"t":2337,"event":"devicemotion"},{"x":-2.1,"y":4.800000000000001,"z":3.1,"interval":16,"t":2353,"event":"devicemotion"},{"x":-3.1,"y":5.800000000000001,"z":2.5,"interval":16,"t":2370,"event":"devicemotion"},{"x":-3.9000000000000004,"y":6.2,"z":1.8,"interval":16,"t":2387,"event":"devicemotion"},{"x":-4.4,"y":6.1000000000000005,"z":1.4000000000000001,"interval":16,"t":2403,"event":"devicemotion"},{"x":-4.4,"y":6.1000000000000005,"z":1.4000000000000001,"interval":16,"t":2419,"event":"devicemotion"},{"x":-4,"y":5,"z":0.5,"interval":16,"t":2437,"event":"devicemotion"},{"x":-2.5,"y":3.6,"z":-0.1,"interval":16,"t":2453,"event":"devicemotion"},{"x":0.1,"y":0.6000000000000001,"z":-1.2000000000000002,"interval":16,"t":2489,"event":"devicemotion"},{"x":1.2000000000000002,"y":-0.30000000000000004,"z":-2,"interval":16,"t":2504,"event":"devicemotion"},{"x":1.2000000000000002,"y":-0.30000000000000004,"z":-2,"interval":16,"t":2519,"event":"devicemotion"},{"x":1.7000000000000002,"y":-0.9,"z":-2.2,"interval":16,"t":2536,"event":"devicemotion"},{"x":1.5,"y":-1.2000000000000002,"z":-1.9000000000000001,"interval":16,"t":2555,"event":"devicemotion"},{"x":1.4000000000000001,"y":-1.4000000000000001,"z":-1.4000000000000001,"interval":16,"t":2569,"event":"devicemotion"},{"x":1.1,"y":-1.5,"z":-1,"interval":16,"t":2586,"event":"devicemotion"},{"x":1,"y":-1.3,"z":-0.8,"interval":16,"t":2603,"event":"devicemotion"},{"x":1,"y":-1.3,"z":-0.8,"interval":16,"t":2619,"event":"devicemotion"},{"x":-0.1,"y":-0.7000000000000001,"z":-1,"interval":16,"t":2636,"event":"devicemotion"},{"x":0.2,"y":-0.4,"z":-0.7000000000000001,"interval":16,"t":2653,"event":"devicemotion"},{"x":0.4,"y":-0.5,"z":-0.7000000000000001,"interval":16,"t":2669,"event":"devicemotion"},{"x":0.30000000000000004,"y":-0.6000000000000001,"z":-1.1,"interval":16,"t":2686,"event":"devicemotion"},{"x":0.8,"y":-0.5,"z":-1.2000000000000002,"interval":16,"t":2703,"event":"devicemotion"},{"x":0.8,"y":-0.5,"z":-1.2000000000000002,"interval":16,"t":2720,"event":"devicemotion"},{"x":0.7000000000000001,"y":-0.4,"z":-1.2000000000000002,"interval":16,"t":2736,"event":"devicemotion"},{"x":0.7000000000000001,"y":-0.4,"z":-1.1,"interval":16,"t":2753,"event":"devicemotion"},{"x":0.5,"y":-0.5,"z":-1,"interval":16,"t":2770,"event":"devicemotion"},{"x":0.9,"y":-0.5,"z":-0.8,"interval":16,"t":2786,"event":"devicemotion"},{"x":0.9,"y":-0.5,"z":-0.8,"interval":16,"t":2803,"event":"devicemotion"},{"x":0.9,"y":-0.6000000000000001,"z":-0.7000000000000001,"interval":16,"t":2820,"event":"devicemotion"},{"x":0.7000000000000001,"y":-0.7000000000000001,"z":-0.6000000000000001,"interval":16,"t":2839,"event":"devicemotion"},{"x":1,"y":-0.9,"z":-0.30000000000000004,"interval":16,"t":2854,"event":"devicemotion"},{"x":0.9,"y":-1.1,"z":0.1,"interval":16,"t":2871,"event":"devicemotion"},{"x":1,"y":-1.4000000000000001,"z":0.1,"interval":16,"t":2887,"event":"devicemotion"},{"x":1.1,"y":-1.5,"z":-0.4,"interval":16,"t":2902,"event":"devicemotion"},{"x":1.1,"y":-1.5,"z":-0.4,"interval":16,"t":2922,"event":"devicemotion"},{"x":0.4,"y":-1.4000000000000001,"z":-1.1,"interval":16,"t":2936,"event":"devicemotion"},{"x":-0.30000000000000004,"y":-1.2000000000000002,"z":-1.2000000000000002,"interval":16,"t":2952,"event":"devicemotion"},{"x":-0.4,"y":-1.2000000000000002,"z":-0.9,"interval":16,"t":2969,"event":"devicemotion"},{"x":-0.1,"y":-1.6,"z":-0.5,"interval":16,"t":2987,"event":"devicemotion"},{"x":-0.1,"y":-1.6,"z":-0.5,"interval":16,"t":3003,"event":"devicemotion"},{"x":0.4,"y":-2.1,"z":-0.2,"interval":16,"t":3020,"event":"devicemotion"},{"x":0.9,"y":-2.4000000000000004,"z":-0.30000000000000004,"interval":16,"t":3036,"event":"devicemotion"},{"x":0.8,"y":-2.5,"z":-0.7000000000000001,"interval":16,"t":3053,"event":"devicemotion"},{"x":0.8,"y":-2.5,"z":-1.1,"interval":16,"t":3071,"event":"devicemotion"},{"x":0.8,"y":-2.5,"z":-1.1,"interval":16,"t":3088,"event":"devicemotion"},{"x":0.7000000000000001,"y":-2.2,"z":-1,"interval":16,"t":3103,"event":"devicemotion"},{"x":0.7000000000000001,"y":-1.9000000000000001,"z":-0.9,"interval":16,"t":3119,"event":"devicemotion"},{"x":0.2,"y":-1.5,"z":-0.6000000000000001,"interval":16,"t":3139,"event":"devicemotion"},{"x":-0.4,"y":-1.4000000000000001,"z":-0.4,"interval":16,"t":3153,"event":"devicemotion"},{"x":-0.4,"y":-1.7000000000000002,"z":-0.30000000000000004,"interval":16,"t":3171,"event":"devicemotion"},{"x":-0.4,"y":-2.5,"z":-0.2,"interval":16,"t":3186,"event":"devicemotion"},{"x":-0.4,"y":-2.5,"z":-0.2,"interval":16,"t":3203,"event":"devicemotion"},{"x":0.6000000000000001,"y":-2.5,"z":0.2,"interval":16,"t":3219,"event":"devicemotion"},{"x":0.4,"y":-1.2000000000000002,"z":0.8,"interval":16,"t":3236,"event":"devicemotion"},{"x":-1,"y":0.8,"z":1.8,"interval":16,"t":3253,"event":"devicemotion"},{"x":-2,"y":2.8000000000000003,"z":2.4000000000000004,"interval":16,"t":3269,"event":"devicemotion"},{"x":-2.5,"y":4,"z":2.3000000000000003,"interval":16,"t":3286,"event":"devicemotion"},{"x":-2.5,"y":4,"z":2.3000000000000003,"interval":16,"t":3303,"event":"devicemotion"},{"x":-2.2,"y":4.9,"z":2.1,"interval":16,"t":3319,"event":"devicemotion"},{"x":-1.8,"y":5.4,"z":1.7000000000000002,"interval":16,"t":3336,"event":"devicemotion"},{"x":-1.2000000000000002,"y":5.4,"z":1.7000000000000002,"interval":16,"t":3354,"event":"devicemotion"},{"x":-1.2000000000000002,"y":5.4,"z":1.7000000000000002,"interval":16,"t":3371,"event":"devicemotion"},{"x":-1.5,"y":5.300000000000001,"z":2,"interval":16,"t":3387,"event":"devicemotion"},{"x":-1.7000000000000002,"y":5.1000000000000005,"z":1.8,"interval":16,"t":3402,"event":"devicemotion"},{"x":-1.4000000000000001,"y":4.4,"z":1.6,"interval":16,"t":3419,"event":"devicemotion"},{"x":-0.7000000000000001,"y":3.4000000000000004,"z":1.4000000000000001,"interval":16,"t":3436,"event":"devicemotion"},{"x":0.2,"y":2.3000000000000003,"z":1.1,"interval":16,"t":3453,"event":"devicemotion"},{"x":0.8,"y":1.3,"z":0.4,"interval":16,"t":3471,"event":"devicemotion"},{"x":0.8,"y":1.3,"z":0.4,"interval":16,"t":3486,"event":"devicemotion"},{"x":0.8,"y":0.5,"z":-0.5,"interval":16,"t":3503,"event":"devicemotion"},{"x":1.1,"y":-0.1,"z":-1.2000000000000002,"interval":16,"t":3520,"event":"devicemotion"},{"x":0.9,"y":-0.5,"z":-1.4000000000000001,"interval":16,"t":3536,"event":"devicemotion"},{"x":0.9,"y":-0.8,"z":-1,"interval":16,"t":3553,"event":"devicemotion"},{"x":0.7000000000000001,"y":-0.9,"z":-1,"interval":16,"t":3571,"event":"devicemotion"},{"x":0.7000000000000001,"y":-0.9,"z":-1,"interval":16,"t":3586,"event":"devicemotion"},{"x":0.4,"y":-0.9,"z":-1,"interval":16,"t":3603,"event":"devicemotion"},{"x":0.30000000000000004,"y":-0.8,"z":-0.9,"interval":16,"t":3621,"event":"devicemotion"},{"x":0.2,"y":-0.9,"z":-1.1,"interval":16,"t":3636,"event":"devicemotion"},{"x":0.7000000000000001,"y":-1,"z":-1.4000000000000001,"interval":16,"t":3653,"event":"devicemotion"},{"x":0.7000000000000001,"y":-1,"z":-1.4000000000000001,"interval":16,"t":3671,"event":"devicemotion"},{"x":0.6000000000000001,"y":-1.1,"z":-1.2000000000000002,"interval":16,"t":3687,"event":"devicemotion"},{"x":0.5,"y":-1.1,"z":-1.2000000000000002,"interval":16,"t":3703,"event":"devicemotion"},{"x":1,"y":-1,"z":-1.3,"interval":16,"t":3720,"event":"devicemotion"},{"x":0.8,"y":-0.9,"z":-1.6,"interval":16,"t":3736,"event":"devicemotion"},{"x":0.8,"y":-0.9,"z":-1.8,"interval":16,"t":3753,"event":"devicemotion"},{"x":0.8,"y":-0.9,"z":-1.8,"interval":16,"t":3770,"event":"devicemotion"},{"x":0.6000000000000001,"y":-0.9,"z":-1.5,"interval":16,"t":3786,"event":"devicemotion"},{"x":1.1,"y":-1,"z":-0.9,"interval":16,"t":3803,"event":"devicemotion"},{"x":0.8,"y":-1,"z":-0.5,"interval":16,"t":3819,"event":"devicemotion"},{"x":0.5,"y":-0.9,"z":-0.30000000000000004,"interval":16,"t":3836,"event":"devicemotion"},{"x":0.5,"y":-0.9,"z":-0.30000000000000004,"interval":16,"t":3854,"event":"devicemotion"},{"x":0.2,"y":-0.8,"z":-0.4,"interval":16,"t":3870,"event":"devicemotion"},{"x":0.2,"y":-0.8,"z":-0.4,"interval":16,"t":3889,"event":"devicemotion"},{"x":0.1,"y":-0.7000000000000001,"z":-0.7000000000000001,"interval":16,"t":3903,"event":"devicemotion"},{"x":0.4,"y":-0.9,"z":-0.5,"interval":16,"t":3920,"event":"devicemotion"},{"x":0.6000000000000001,"y":-1.2000000000000002,"z":-0.30000000000000004,"interval":16,"t":3936,"event":"devicemotion"},{"x":0.5,"y":-1.1,"z":0.1,"interval":16,"t":3953,"event":"devicemotion"},{"x":0.5,"y":-1.1,"z":0.1,"interval":16,"t":3969,"event":"devicemotion"},{"x":0.30000000000000004,"y":-1.1,"z":0.4,"interval":16,"t":3986,"event":"devicemotion"},{"x":0.4,"y":-1.3,"z":0.2,"interval":16,"t":4004,"event":"devicemotion"},{"x":0.30000000000000004,"y":-1.3,"z":-0.30000000000000004,"interval":16,"t":4019,"event":"devicemotion"},{"x":0.5,"y":-1.4000000000000001,"z":-0.6000000000000001,"interval":16,"t":4036,"event":"devicemotion"},{"x":0.5,"y":-1.6,"z":-0.6000000000000001,"interval":16,"t":4053,"event":"devicemotion"},{"x":0.5,"y":-1.6,"z":-0.6000000000000001,"interval":16,"t":4070,"event":"devicemotion"},{"x":0.4,"y":-1.6,"z":-0.7000000000000001,"interval":16,"t":4086,"event":"devicemotion"},{"x":0.1,"y":-1.6,"z":-0.6000000000000001,"interval":16,"t":4103,"event":"devicemotion"},{"x":0.30000000000000004,"y":-1.4000000000000001,"z":-0.6000000000000001,"interval":16,"t":4119,"event":"devicemotion"},{"x":0.1,"y":-1.1,"z":-0.4,"interval":16,"t":4136,"event":"devicemotion"},{"x":-0.30000000000000004,"y":-1.2000000000000002,"z":-0.2,"interval":16,"t":4157,"event":"devicemotion"},{"x":-0.30000000000000004,"y":-1.2000000000000002,"z":-0.2,"interval":16,"t":4170,"event":"devicemotion"},{"x":-0.4,"y":-1.8,"z":-0.1,"interval":16,"t":4186,"event":"devicemotion"},{"x":-0.30000000000000004,"y":-2.6,"z":0,"interval":16,"t":4203,"event":"devicemotion"},{"x":-0.5,"y":-3.4000000000000004,"z":0,"interval":16,"t":4219,"event":"devicemotion"},{"x":0.2,"y":-3.5,"z":0.4,"interval":16,"t":4237,"event":"devicemotion"},{"x":0.2,"y":-3.5,"z":0.4,"interval":16,"t":4254,"event":"devicemotion"},{"x":0.30000000000000004,"y":-2.9000000000000004,"z":0.8,"interval":16,"t":4271,"event":"devicemotion"},{"x":0.30000000000000004,"y":-1.8,"z":0.5,"interval":16,"t":4287,"event":"devicemotion"},{"x":0.2,"y":-0.30000000000000004,"z":1.1,"interval":16,"t":4303,"event":"devicemotion"},{"x":-0.8,"y":1.8,"z":2.3000000000000003,"interval":16,"t":4321,"event":"devicemotion"},{"x":-1.6,"y":4,"z":3.2,"interval":16,"t":4336,"event":"devicemotion"},{"x":-1.6,"y":4,"z":3.2,"interval":16,"t":4353,"event":"devicemotion"},{"x":-2.5,"y":5.4,"z":3.3000000000000003,"interval":16,"t":4370,"event":"devicemotion"},{"x":-3.6,"y":6.800000000000001,"z":3.5,"interval":16,"t":4386,"event":"devicemotion"},{"x":-5,"y":7.5,"z":3.2,"interval":16,"t":4403,"event":"devicemotion"},{"x":-4.800000000000001,"y":7.2,"z":2.7,"interval":16,"t":4420,"event":"devicemotion"},{"x":-4.5,"y":6.800000000000001,"z":2.8000000000000003,"interval":16,"t":4436,"event":"devicemotion"},{"x":-4.5,"y":6.800000000000001,"z":2.8000000000000003,"interval":16,"t":4453,"event":"devicemotion"},{"x":-3.5,"y":5.7,"z":2.6,"interval":16,"t":4471,"event":"devicemotion"},{"x":-1.7000000000000002,"y":3.9000000000000004,"z":1.5,"interval":16,"t":4486,"event":"devicemotion"},{"x":0.2,"y":2.4000000000000004,"z":0.9,"interval":16,"t":4503,"event":"devicemotion"},{"x":1,"y":1.5,"z":0.7000000000000001,"interval":16,"t":4519,"event":"devicemotion"},{"x":1.5,"y":0.7000000000000001,"z":0.4,"interval":16,"t":4536,"event":"devicemotion"},{"x":1.5,"y":0.7000000000000001,"z":0.4,"interval":16,"t":4553,"event":"devicemotion"},{"x":2,"y":0,"z":0.1,"interval":16,"t":4570,"event":"devicemotion"},{"x":1.8,"y":-0.4,"z":0,"interval":16,"t":4587,"event":"devicemotion"},{"x":1.5,"y":-0.6000000000000001,"z":0.2,"interval":16,"t":4603,"event":"devicemotion"},{"x":0.9,"y":-0.6000000000000001,"z":0.5,"interval":16,"t":4620,"event":"devicemotion"},{"x":0.9,"y":-0.6000000000000001,"z":0.5,"interval":16,"t":4639,"event":"devicemotion"},{"x":-0.2,"y":-0.5,"z":-0.4,"interval":16,"t":4653,"event":"devicemotion"},{"x":0.1,"y":-0.7000000000000001,"z":-0.4,"interval":16,"t":4670,"event":"devicemotion"},{"x":0.5,"y":-1.1,"z":-0.2,"interval":16,"t":4687,"event":"devicemotion"},{"x":0.9,"y":-1.3,"z":-0.5,"interval":16,"t":4703,"event":"devicemotion"},{"x":0.8,"y":-1.3,"z":-1,"interval":16,"t":4721,"event":"devicemotion"},{"x":0.8,"y":-1.3,"z":-1,"interval":16,"t":4737,"event":"devicemotion"},{"x":0.6000000000000001,"y":-1.2000000000000002,"z":-0.9,"interval":16,"t":4753,"event":"devicemotion"},{"x":0.5,"y":-1.2000000000000002,"z":-0.8,"interval":16,"t":4770,"event":"devicemotion"},{"x":0.8,"y":-1.3,"z":-0.8,"interval":16,"t":4786,"event":"devicemotion"},{"x":0.8,"y":-1.4000000000000001,"z":-0.6000000000000001,"interval":16,"t":4803,"event":"devicemotion"},{"x":0.9,"y":-1.3,"z":-0.4,"interval":16,"t":4819,"event":"devicemotion"},{"x":0.9,"y":-1.3,"z":-0.4,"interval":16,"t":4838,"event":"devicemotion"},{"x":0.5,"y":-1.3,"z":-0.5,"interval":16,"t":4853,"event":"devicemotion"},{"x":0.2,"y":-1.1,"z":-0.5,"interval":16,"t":4872,"event":"devicemotion"},{"x":0,"y":-0.9,"z":-0.6000000000000001,"interval":16,"t":4891,"event":"devicemotion"},{"x":-0.4,"y":-0.8,"z":-0.6000000000000001,"interval":16,"t":4907,"event":"devicemotion"},{"x":0,"y":-0.9,"z":-0.4,"interval":16,"t":4919,"event":"devicemotion"},{"x":0,"y":-0.9,"z":-0.4,"interval":16,"t":4936,"event":"devicemotion"},{"x":-0.2,"y":-0.9,"z":-0.4,"interval":16,"t":4954,"event":"devicemotion"},{"x":-0.4,"y":-0.9,"z":-0.7000000000000001,"interval":16,"t":4969,"event":"devicemotion"},{"x":-0.6000000000000001,"y":-1,"z":-0.6000000000000001,"interval":16,"t":4986,"event":"devicemotion"},{"x":-0.2,"y":-1.3,"z":-0.2,"interval":16,"t":5003,"event":"devicemotion"},{"x":0,"y":-1.6,"z":-0.1,"interval":16,"t":5019,"event":"devicemotion"},{"x":0,"y":-1.6,"z":-0.1,"interval":16,"t":5036,"event":"devicemotion"},{"x":0.4,"y":-1.8,"z":-0.30000000000000004,"interval":16,"t":5053,"event":"devicemotion"},{"x":0.4,"y":-2,"z":-0.7000000000000001,"interval":16,"t":5070,"event":"devicemotion"},{"x":0.4,"y":-2.1,"z":-1,"interval":16,"t":5086,"event":"devicemotion"},{"x":1,"y":-2.3000000000000003,"z":-1.1,"interval":16,"t":5103,"event":"devicemotion"},{"x":1,"y":-2.2,"z":-1.3,"interval":16,"t":5120,"event":"devicemotion"},{"x":1,"y":-2.2,"z":-1.3,"interval":16,"t":5136,"event":"devicemotion"},{"x":1.1,"y":-1.9000000000000001,"z":-1.2000000000000002,"interval":16,"t":5155,"event":"devicemotion"},{"x":1.1,"y":-1.9000000000000001,"z":-1.2000000000000002,"interval":16,"t":5177,"event":"devicemotion"},{"x":0.30000000000000004,"y":-2.1,"z":-1.3,"interval":16,"t":5189,"event":"devicemotion"},{"x":-0.4,"y":-2.4000000000000004,"z":-1,"interval":16,"t":5202,"event":"devicemotion"},{"x":-0.6000000000000001,"y":-2.5,"z":-0.6000000000000001,"interval":16,"t":5219,"event":"devicemotion"},{"x":-0.6000000000000001,"y":-2.5,"z":-0.6000000000000001,"interval":16,"t":5236,"event":"devicemotion"},{"x":-0.2,"y":-1.7000000000000002,"z":-0.2,"interval":16,"t":5252,"event":"devicemotion"},{"x":-0.30000000000000004,"y":-0.6000000000000001,"z":0.7000000000000001,"interval":16,"t":5269,"event":"devicemotion"},{"x":-0.9,"y":1,"z":1.9000000000000001,"interval":16,"t":5286,"event":"devicemotion"},{"x":-1.8,"y":2.7,"z":2.6,"interval":16,"t":5302,"event":"devicemotion"},{"x":-1.8,"y":2.7,"z":2.6,"interval":16,"t":5319,"event":"devicemotion"},{"x":-2,"y":3.9000000000000004,"z":3,"interval":16,"t":5336,"event":"devicemotion"},{"x":-1.9000000000000001,"y":4.7,"z":3.1,"interval":16,"t":5354,"event":"devicemotion"},{"x":-1.6,"y":5.2,"z":2.9000000000000004,"interval":16,"t":5369,"event":"devicemotion"},{"x":-1.4000000000000001,"y":5.4,"z":2.8000000000000003,"interval":16,"t":5386,"event":"devicemotion"},{"x":-1.3,"y":5.2,"z":2.9000000000000004,"interval":16,"t":5403,"event":"devicemotion"},{"x":-1.3,"y":5.2,"z":2.9000000000000004,"interval":16,"t":5420,"event":"devicemotion"},{"x":-1.3,"y":4.800000000000001,"z":3,"interval":16,"t":5436,"event":"devicemotion"},{"x":-1.2000000000000002,"y":4.2,"z":3.1,"interval":16,"t":5454,"event":"devicemotion"},{"x":-0.6000000000000001,"y":3.5,"z":3.2,"interval":16,"t":5470,"event":"devicemotion"},{"x":0.1,"y":2.7,"z":2.4000000000000004,"interval":16,"t":5486,"event":"devicemotion"},{"x":0.30000000000000004,"y":1.9000000000000001,"z":1.4000000000000001,"interval":16,"t":5503,"event":"devicemotion"},{"x":0.30000000000000004,"y":1.9000000000000001,"z":1.4000000000000001,"interval":16,"t":5520,"event":"devicemotion"},{"x":0.6000000000000001,"y":1,"z":0.5,"interval":16,"t":5537,"event":"devicemotion"},{"x":1,"y":0.1,"z":-0.2,"interval":16,"t":5555,"event":"devicemotion"},{"x":1.1,"y":-0.6000000000000001,"z":-0.5,"interval":16,"t":5570,"event":"devicemotion"},{"x":1.2000000000000002,"y":-1,"z":-0.30000000000000004,"interval":16,"t":5586,"event":"devicemotion"},{"x":1.2000000000000002,"y":-1,"z":-0.30000000000000004,"interval":16,"t":5604,"event":"devicemotion"},{"x":1,"y":-1.1,"z":-0.2,"interval":16,"t":5619,"event":"devicemotion"},{"x":-0.1,"y":-0.8,"z":-1,"interval":16,"t":5636,"event":"devicemotion"},{"x":-0.1,"y":-0.8,"z":-1.3,"interval":16,"t":5653,"event":"devicemotion"},{"x":0.2,"y":-0.8,"z":-1.3,"interval":16,"t":5669,"event":"devicemotion"},{"x":0.2,"y":-0.8,"z":-1.3,"interval":16,"t":5687,"event":"devicemotion"},{"x":0.2,"y":-0.9,"z":-1.2000000000000002,"interval":16,"t":5703,"event":"devicemotion"},{"x":0.5,"y":-0.9,"z":-1.3,"interval":16,"t":5720,"event":"devicemotion"},{"x":0.30000000000000004,"y":-0.8,"z":-1.4000000000000001,"interval":16,"t":5736,"event":"devicemotion"},{"x":0.4,"y":-0.8,"z":-1.2000000000000002,"interval":16,"t":5753,"event":"devicemotion"},{"x":0.4,"y":-0.7000000000000001,"z":-1,"interval":16,"t":5770,"event":"devicemotion"},{"x":0.7000000000000001,"y":-0.7000000000000001,"z":-1,"interval":16,"t":5787,"event":"devicemotion"},{"x":0.7000000000000001,"y":-0.7000000000000001,"z":-1,"interval":16,"t":5804,"event":"devicemotion"},{"x":0.5,"y":-0.8,"z":-1.1,"interval":16,"t":5819,"event":"devicemotion"},{"x":0.6000000000000001,"y":-0.8,"z":-1,"interval":16,"t":5837,"event":"devicemotion"},{"x":0.8,"y":-0.8,"z":-1,"interval":16,"t":5853,"event":"devicemotion"},{"x":0.5,"y":-0.7000000000000001,"z":-0.9,"interval":16,"t":5871,"event":"devicemotion"},{"x":0.30000000000000004,"y":-0.8,"z":-0.7000000000000001,"interval":16,"t":5887,"event":"devicemotion"},{"x":0.30000000000000004,"y":-0.8,"z":-0.7000000000000001,"interval":16,"t":5903,"event":"devicemotion"},{"x":0.30000000000000004,"y":-0.7000000000000001,"z":-0.7000000000000001,"interval":16,"t":5920,"event":"devicemotion"},{"x":0.1,"y":-0.7000000000000001,"z":-0.8,"interval":16,"t":5936,"event":"devicemotion"},{"x":0,"y":-0.8,"z":-0.7000000000000001,"interval":16,"t":5953,"event":"devicemotion"},{"x":0,"y":-0.9,"z":-0.7000000000000001,"interval":16,"t":5970,"event":"devicemotion"},{"x":0,"y":-0.9,"z":-0.7000000000000001,"interval":16,"t":5986,"event":"devicemotion"},{"x":0,"y":-1.1,"z":-0.6000000000000001,"interval":16,"t":6004,"event":"devicemotion"},{"x":0.30000000000000004,"y":-1.4000000000000001,"z":-0.5,"interval":16,"t":6019,"event":"devicemotion"},{"x":0.2,"y":-1.6,"z":-0.5,"interval":16,"t":6036,"event":"devicemotion"},{"x":0.2,"y":-1.8,"z":-0.5,"interval":16,"t":6053,"event":"devicemotion"},{"x":0.1,"y":-2.1,"z":-0.8,"interval":16,"t":6069,"event":"devicemotion"},{"x":0.1,"y":-2.1,"z":-0.8,"interval":16,"t":6087,"event":"devicemotion"},{"x":0,"y":-2.6,"z":-1.1,"interval":16,"t":6103,"event":"devicemotion"},{"x":0.2,"y":-3.3000000000000003,"z":-1.3,"interval":16,"t":6119,"event":"devicemotion"},{"x":1,"y":-3.6,"z":-1.5,"interval":16,"t":6136,"event":"devicemotion"},{"x":1.9000000000000001,"y":-3.6,"z":-1.5,"interval":16,"t":6154,"event":"devicemotion"},{"x":2.2,"y":-3.4000000000000004,"z":-1.5,"interval":16,"t":6170,"event":"devicemotion"},{"x":2.2,"y":-3.4000000000000004,"z":-1.5,"interval":16,"t":6187,"event":"devicemotion"},{"x":1.4000000000000001,"y":-2.8000000000000003,"z":-1.3,"interval":16,"t":6203,"event":"devicemotion"},{"x":0.9,"y":-2.1,"z":-0.7000000000000001,"interval":16,"t":6220,"event":"devicemotion"},{"x":1,"y":-1.6,"z":0.1,"interval":16,"t":6240,"event":"devicemotion"},{"x":0.30000000000000004,"y":-0.9,"z":1.6,"interval":16,"t":6253,"event":"devicemotion"},{"x":-0.9,"y":0.7000000000000001,"z":3.2,"interval":16,"t":6269,"event":"devicemotion"},{"x":-0.9,"y":0.7000000000000001,"z":3.2,"interval":16,"t":6287,"event":"devicemotion"},{"x":-1.4000000000000001,"y":2.9000000000000004,"z":4.1000000000000005,"interval":16,"t":6303,"event":"devicemotion"},{"x":-1.9000000000000001,"y":4.800000000000001,"z":4.6000000000000005,"interval":16,"t":6319,"event":"devicemotion"},{"x":-2.2,"y":6.300000000000001,"z":4,"interval":16,"t":6336,"event":"devicemotion"},{"x":-2.6,"y":6.9,"z":2.5,"interval":16,"t":6354,"event":"devicemotion"},{"x":-3.1,"y":7.300000000000001,"z":1,"interval":16,"t":6370,"event":"devicemotion"},{"x":-3.1,"y":7.300000000000001,"z":1,"interval":16,"t":6386,"event":"devicemotion"},{"x":-3,"y":7.2,"z":0.5,"interval":16,"t":6403,"event":"devicemotion"},{"x":-2.3000000000000003,"y":6.2,"z":0.4,"interval":16,"t":6419,"event":"devicemotion"},{"x":-0.9,"y":4.800000000000001,"z":0.4,"interval":16,"t":6439,"event":"devicemotion"},{"x":-0.1,"y":3.4000000000000004,"z":-0.2,"interval":16,"t":6453,"event":"devicemotion"},{"x":0.8,"y":2,"z":-0.6000000000000001,"interval":16,"t":6471,"event":"devicemotion"},{"x":0.8,"y":2,"z":-0.6000000000000001,"interval":16,"t":6488,"event":"devicemotion"},{"x":1.5,"y":0.7000000000000001,"z":-0.6000000000000001,"interval":16,"t":6503,"event":"devicemotion"},{"x":2,"y":-0.5,"z":-0.30000000000000004,"interval":16,"t":6519,"event":"devicemotion"},{"x":2.2,"y":-1.5,"z":-0.2,"interval":16,"t":6537,"event":"devicemotion"},{"x":2.2,"y":-2.2,"z":0,"interval":16,"t":6554,"event":"devicemotion"},{"x":2.2,"y":-2.2,"z":0,"interval":16,"t":6570,"event":"devicemotion"},{"x":2.6,"y":-2.4000000000000004,"z":0.1,"interval":16,"t":6586,"event":"devicemotion"},{"x":1.8,"y":-2.2,"z":0.1,"interval":16,"t":6603,"event":"devicemotion"},{"x":1.5,"y":-2,"z":-0.2,"interval":16,"t":6620,"event":"devicemotion"},{"x":0.30000000000000004,"y":-1.5,"z":-0.30000000000000004,"interval":16,"t":6640,"event":"devicemotion"},{"x":0.30000000000000004,"y":-1.3,"z":0,"interval":16,"t":6653,"event":"devicemotion"},{"x":0.30000000000000004,"y":-1.3,"z":0,"interval":16,"t":6669,"event":"devicemotion"},{"x":0.4,"y":-1.3,"z":0.1,"interval":16,"t":6686,"event":"devicemotion"},{"x":1,"y":-1.4000000000000001,"z":0,"interval":16,"t":6702,"event":"devicemotion"},{"x":0.30000000000000004,"y":-1.1,"z":-0.30000000000000004,"interval":16,"t":6719,"event":"devicemotion"},{"x":0.2,"y":-0.9,"z":-0.6000000000000001,"interval":16,"t":6736,"event":"devicemotion"},{"x":0.2,"y":-0.9,"z":-0.6000000000000001,"interval":16,"t":6754,"event":"devicemotion"},{"x":0.4,"y":-0.8,"z":-0.4,"interval":16,"t":6770,"event":"devicemotion"},{"x":0.6000000000000001,"y":-0.6000000000000001,"z":-0.30000000000000004,"interval":16,"t":6786,"event":"devicemotion"},{"x":0.4,"y":-0.30000000000000004,"z":-0.4,"interval":16,"t":6803,"event":"devicemotion"},{"x":0.5,"y":-0.1,"z":-0.4,"interval":16,"t":6819,"event":"devicemotion"},{"x":0,"y":-0.1,"z":-0.2,"interval":16,"t":6844,"event":"devicemotion"},{"x":-0.30000000000000004,"y":0,"z":-0.2,"interval":16,"t":6852,"event":"devicemotion"},{"x":-0.30000000000000004,"y":0,"z":-0.2,"interval":16,"t":6869,"event":"devicemotion"},{"x":-0.30000000000000004,"y":0.1,"z":-0.1,"interval":16,"t":6886,"event":"devicemotion"},{"x":-0.2,"y":0.1,"z":-0.1,"interval":16,"t":6903,"event":"devicemotion"},{"x":-0.2,"y":0.1,"z":-0.2,"interval":16,"t":6919,"event":"devicemotion"},{"x":-0.2,"y":0.1,"z":-0.2,"interval":16,"t":6936,"event":"devicemotion"},{"x":-0.2,"y":0.1,"z":-0.2,"interval":16,"t":6953,"event":"devicemotion"},{"x":0,"y":0,"z":-0.1,"interval":16,"t":6970,"event":"devicemotion"},{"x":0.2,"y":0,"z":-0.1,"interval":16,"t":6987,"event":"devicemotion"},{"x":0,"y":0,"z":-0.30000000000000004,"interval":16,"t":7003,"event":"devicemotion"},{"x":0,"y":-0.1,"z":-0.30000000000000004,"interval":16,"t":7019,"event":"devicemotion"},{"x":0,"y":-0.1,"z":-0.30000000000000004,"interval":16,"t":7037,"event":"devicemotion"},{"x":0.2,"y":-0.30000000000000004,"z":-0.30000000000000004,"interval":16,"t":7053,"event":"devicemotion"},{"x":0,"y":-0.4,"z":-0.1,"interval":16,"t":7069,"event":"devicemotion"},{"x":0,"y":-0.30000000000000004,"z":-0.2,"interval":16,"t":7086,"event":"devicemotion"},{"x":0.30000000000000004,"y":-0.30000000000000004,"z":-0.30000000000000004,"interval":16,"t":7105,"event":"devicemotion"},{"x":0.4,"y":-0.30000000000000004,"z":-0.30000000000000004,"interval":16,"t":7119,"event":"devicemotion"},{"x":0.2,"y":-0.2,"z":-0.1,"interval":16,"t":7136,"event":"devicemotion"},{"x":0.2,"y":-0.2,"z":-0.1,"interval":16,"t":7153,"event":"devicemotion"},{"x":0,"y":0,"z":-0.2,"interval":16,"t":7170,"event":"devicemotion"},{"x":0,"y":0.1,"z":-0.1,"interval":16,"t":7186,"event":"devicemotion"},{"x":0,"y":0.1,"z":0.1,"interval":16,"t":7203,"event":"devicemotion"},{"x":0.1,"y":0.2,"z":0.2,"interval":16,"t":7219,"event":"devicemotion"},{"x":0.1,"y":0.2,"z":0.2,"interval":16,"t":7237,"event":"devicemotion"},{"x":-0.4,"y":0.30000000000000004,"z":0.1,"interval":16,"t":7253,"event":"devicemotion"},{"x":-0.30000000000000004,"y":0.2,"z":0.1,"interval":16,"t":7270,"event":"devicemotion"},{"x":0.2,"y":0.2,"z":0.1,"interval":16,"t":7286,"event":"devicemotion"},{"x":0.2,"y":0.1,"z":-0.1,"interval":16,"t":7303,"event":"devicemotion"},{"x":0.2,"y":0.1,"z":0,"interval":16,"t":7320,"event":"devicemotion"},{"x":0,"y":0,"z":0.1,"interval":16,"t":7336,"event":"devicemotion"},{"x":0,"y":0,"z":0.1,"interval":16,"t":7353,"event":"devicemotion"},{"x":0.2,"y":-0.1,"z":0.1,"interval":16,"t":7371,"event":"devicemotion"},{"x":0.1,"y":-0.1,"z":0.1,"interval":16,"t":7387,"event":"devicemotion"},{"x":0.1,"y":-0.1,"z":-0.1,"interval":16,"t":7403,"event":"devicemotion"},{"x":0.2,"y":-0.1,"z":0,"interval":16,"t":7419,"event":"devicemotion"},{"x":0.2,"y":-0.1,"z":0,"interval":16,"t":7437,"event":"devicemotion"},{"x":0.30000000000000004,"y":-0.1,"z":0.1,"interval":16,"t":7453,"event":"devicemotion"},{"x":0.1,"y":0,"z":0.2,"interval":16,"t":7470,"event":"devicemotion"},{"x":0.1,"y":0.2,"z":0.30000000000000004,"interval":16,"t":7488,"event":"devicemotion"},{"x":0.1,"y":0.2,"z":0.2,"interval":16,"t":7503,"event":"devicemotion"},{"x":0,"y":0.2,"z":0.2,"interval":16,"t":7527,"event":"devicemotion"},{"x":0,"y":0.2,"z":0.2,"interval":16,"t":7536,"event":"devicemotion"},{"x":0,"y":0.30000000000000004,"z":0.2,"interval":16,"t":7552,"event":"devicemotion"},{"x":-0.1,"y":0.2,"z":0.30000000000000004,"interval":16,"t":7569,"event":"devicemotion"},{"x":-0.1,"y":0.1,"z":0.4,"interval":16,"t":7589,"event":"devicemotion"},{"x":0,"y":0.1,"z":0.5,"interval":16,"t":7603,"event":"devicemotion"},{"x":0,"y":0.1,"z":0.5,"interval":16,"t":7620,"event":"devicemotion"},{"x":-0.1,"y":0,"z":0.2,"interval":16,"t":7636,"event":"devicemotion"},{"x":0,"y":-0.1,"z":0.2,"interval":16,"t":7653,"event":"devicemotion"},{"x":0.1,"y":-0.1,"z":0.2,"interval":16,"t":7669,"event":"devicemotion"},{"x":0.1,"y":-0.1,"z":0.1,"interval":16,"t":7686,"event":"devicemotion"},{"x":0,"y":-0.2,"z":0.1,"interval":16,"t":7703,"event":"devicemotion"},{"x":0,"y":-0.2,"z":0.1,"interval":16,"t":7719,"event":"devicemotion"},{"x":0.2,"y":-0.2,"z":0.1,"interval":16,"t":7736,"event":"devicemotion"},{"x":0.4,"y":-0.1,"z":0.1,"interval":16,"t":7753,"event":"devicemotion"},{"x":0.2,"y":0,"z":0.1,"interval":16,"t":7769,"event":"devicemotion"},{"x":0.1,"y":0.2,"z":0.1,"interval":16,"t":7787,"event":"devicemotion"},{"x":0.1,"y":0.2,"z":0.1,"interval":16,"t":7803,"event":"devicemotion"},{"x":0.1,"y":0.2,"z":0,"interval":16,"t":7819,"event":"devicemotion"},{"x":0.1,"y":0.2,"z":0,"interval":16,"t":7836,"event":"devicemotion"},{"x":-0.2,"y":0.2,"z":-0.1,"interval":16,"t":7853,"event":"devicemotion"},{"x":0.1,"y":0.1,"z":0.1,"interval":16,"t":7871,"event":"devicemotion"},{"x":0.1,"y":0.1,"z":0.1,"interval":16,"t":7886,"event":"devicemotion"},{"x":0,"y":0.1,"z":-0.1,"interval":16,"t":7903,"event":"devicemotion"},{"x":0,"y":0.1,"z":-0.1,"interval":16,"t":7920,"event":"devicemotion"},{"x":0,"y":0,"z":-0.1,"interval":16,"t":7936,"event":"devicemotion"},{"x":-0.1,"y":-0.1,"z":0,"interval":16,"t":7953,"event":"devicemotion"},{"x":-0.1,"y":0,"z":0.2,"interval":16,"t":7970,"event":"devicemotion"},{"x":-0.2,"y":0,"z":0,"interval":16,"t":7986,"event":"devicemotion"},{"x":-0.2,"y":0,"z":0,"interval":16,"t":8011,"event":"devicemotion"},{"x":-0.2,"y":0,"z":0,"interval":16,"t":8022,"event":"devicemotion"},{"x":0,"y":-0.1,"z":0,"interval":16,"t":8036,"event":"devicemotion"},{"x":-0.1,"y":-0.1,"z":0,"interval":16,"t":8052,"event":"devicemotion"},{"x":-0.1,"y":-0.1,"z":0,"interval":16,"t":8069,"event":"devicemotion"},{"x":0,"y":0,"z":-0.1,"interval":16,"t":8087,"event":"devicemotion"},{"x":0,"y":0,"z":0,"interval":16,"t":8103,"event":"devicemotion"},{"x":0,"y":0,"z":0,"interval":16,"t":8120,"event":"devicemotion"},{"x":-0.1,"y":0.1,"z":-0.1,"interval":16,"t":8136,"event":"devicemotion"},{"x":-0.1,"y":0.1,"z":0,"interval":16,"t":8153,"event":"devicemotion"},{"x":0.1,"y":0,"z":0.1,"interval":16,"t":8170,"event":"devicemotion"},{"x":0,"y":0.1,"z":0,"interval":16,"t":8187,"event":"devicemotion"},{"x":0,"y":0,"z":0,"interval":16,"t":8203,"event":"devicemotion"},{"x":0,"y":0,"z":0,"interval":16,"t":8219,"event":"devicemotion"},{"x":0,"y":0,"z":0,"interval":16,"t":8236,"event":"devicemotion"},{"x":0,"y":0,"z":-0.1,"interval":16,"t":8253,"event":"devicemotion"},{"x":0,"y":0,"z":-0.1,"interval":16,"t":8270,"event":"devicemotion"},{"x":0,"y":0,"z":0.1,"interval":16,"t":8286,"event":"devicemotion"},{"x":-0.1,"y":-0.1,"z":-0.1,"interval":16,"t":8303,"event":"devicemotion"},{"x":-0.1,"y":-0.1,"z":-0.1,"interval":16,"t":8320,"event":"devicemotion"},{"x":0,"y":0,"z":-0.2,"interval":16,"t":8336,"event":"devicemotion"},{"x":0,"y":0,"z":-0.1,"interval":16,"t":8353,"event":"devicemotion"},{"x":0,"y":0,"z":-0.1,"interval":16,"t":8370,"event":"devicemotion"},{"x":-0.1,"y":-0.1,"z":-0.1,"interval":16,"t":8387,"event":"devicemotion"},{"x":-0.1,"y":-0.1,"z":-0.1,"interval":16,"t":8403,"event":"devicemotion"},{"x":0.2,"y":-0.1,"z":0,"interval":16,"t":8419,"event":"devicemotion"},{"x":0,"y":0,"z":0.1,"interval":16,"t":8436,"event":"devicemotion"},{"x":-0.1,"y":0,"z":0.2,"interval":16,"t":8453,"event":"devicemotion"},{"x":0,"y":0,"z":0.1,"interval":16,"t":8470,"event":"devicemotion"},{"x":0,"y":0,"z":0.1,"interval":16,"t":8486,"event":"devicemotion"},{"x":0,"y":0,"z":0.1,"interval":16,"t":8503,"event":"devicemotion"},{"x":0,"y":0.1,"z":0,"interval":16,"t":8520,"event":"devicemotion"},{"x":0.1,"y":0.1,"z":-0.1,"interval":16,"t":8536,"event":"devicemotion"},{"x":0,"y":0,"z":0,"interval":16,"t":8553,"event":"devicemotion"},{"x":0,"y":0.1,"z":0,"interval":16,"t":8570,"event":"devicemotion"},{"x":0,"y":0,"z":0,"interval":16,"t":8586,"event":"devicemotion"},{"x":0,"y":0,"z":0,"interval":16,"t":8603,"event":"devicemotion"},{"x":0.1,"y":0.1,"z":-0.2,"interval":16,"t":8620,"event":"devicemotion"},{"x":0,"y":0,"z":0.1,"interval":16,"t":8636,"event":"devicemotion"},{"x":-0.1,"y":0,"z":0,"interval":16,"t":8653,"event":"devicemotion"},{"x":0,"y":0.1,"z":-0.2,"interval":16,"t":8669,"event":"devicemotion"},{"x":0,"y":0.1,"z":-0.2,"interval":16,"t":8687,"event":"devicemotion"},{"x":0.1,"y":0,"z":0,"interval":16,"t":8704,"event":"devicemotion"},{"x":0,"y":-0.1,"z":0,"interval":16,"t":8719,"event":"devicemotion"},{"x":0.1,"y":-0.1,"z":-0.2,"interval":16,"t":8736,"event":"devicemotion"},{"x":0,"y":-0.1,"z":-0.2,"interval":16,"t":8755,"event":"devicemotion"},{"x":0,"y":-0.1,"z":-0.2,"interval":16,"t":8769,"event":"devicemotion"},{"x":0.1,"y":-0.1,"z":-0.2,"interval":16,"t":8785,"event":"devicemotion"},{"x":0.1,"y":-0.1,"z":-0.2,"interval":16,"t":8804,"event":"devicemotion"},{"x":0.30000000000000004,"y":-0.1,"z":-0.1,"interval":16,"t":8819,"event":"devicemotion"},{"x":0.1,"y":-0.1,"z":-0.1,"interval":16,"t":8836,"event":"devicemotion"},{"x":-0.2,"y":-0.1,"z":-0.2,"interval":16,"t":8853,"event":"devicemotion"},{"x":-0.1,"y":-0.1,"z":-0.2,"interval":16,"t":8870,"event":"devicemotion"},{"x":-0.1,"y":-0.1,"z":-0.2,"interval":16,"t":8886,"event":"devicemotion"},{"x":0.4,"y":-0.1,"z":0.1,"interval":16,"t":8903,"event":"devicemotion"},{"x":0.30000000000000004,"y":0,"z":0.1,"interval":16,"t":8921,"event":"devicemotion"},{"x":0.1,"y":0.1,"z":0.1,"interval":16,"t":8936,"event":"devicemotion"},{"x":-0.1,"y":0.2,"z":0,"interval":16,"t":8954,"event":"devicemotion"},{"x":0,"y":0.2,"z":0,"interval":16,"t":8969,"event":"devicemotion"},{"x":-0.1,"y":0.2,"z":0.2,"interval":16,"t":8986,"event":"devicemotion"},{"x":-0.1,"y":0.2,"z":0.2,"interval":16,"t":9003,"event":"devicemotion"},{"x":-0.2,"y":0.30000000000000004,"z":0.30000000000000004,"interval":16,"t":9019,"event":"devicemotion"},{"x":-0.4,"y":0.30000000000000004,"z":0.30000000000000004,"interval":16,"t":9036,"event":"devicemotion"},{"x":-0.4,"y":0.2,"z":0.4,"interval":16,"t":9053,"event":"devicemotion"},{"x":-0.1,"y":0.1,"z":0.1,"interval":16,"t":9069,"event":"devicemotion"},{"x":-0.1,"y":0.1,"z":0.1,"interval":16,"t":9086,"event":"devicemotion"},{"x":-0.1,"y":0,"z":0,"interval":16,"t":9103,"event":"devicemotion"},{"x":0.1,"y":-0.1,"z":0.2,"interval":16,"t":9119,"event":"devicemotion"},{"x":0.1,"y":-0.1,"z":0,"interval":16,"t":9136,"event":"devicemotion"},{"x":0.1,"y":-0.2,"z":0.1,"interval":16,"t":9153,"event":"devicemotion"},{"x":0,"y":-0.30000000000000004,"z":0.1,"interval":16,"t":9170,"event":"devicemotion"},{"x":0,"y":-0.30000000000000004,"z":0.1,"interval":16,"t":9187,"event":"devicemotion"},{"x":0,"y":-0.30000000000000004,"z":-0.1,"interval":16,"t":9203,"event":"devicemotion"},{"x":0,"y":-0.30000000000000004,"z":-0.30000000000000004,"interval":16,"t":9219,"event":"devicemotion"},{"x":-0.1,"y":-0.2,"z":-0.30000000000000004,"interval":16,"t":9236,"event":"devicemotion"},{"x":0,"y":-0.2,"z":-0.2,"interval":16,"t":9253,"event":"devicemotion"},{"x":0,"y":-0.2,"z":-0.2,"interval":16,"t":9269,"event":"devicemotion"},{"x":0.1,"y":-0.1,"z":-0.2,"interval":16,"t":9287,"event":"devicemotion"},{"x":0,"y":-0.1,"z":-0.30000000000000004,"interval":16,"t":9303,"event":"devicemotion"},{"x":0,"y":-0.1,"z":-0.2,"interval":16,"t":9319,"event":"devicemotion"},{"x":0.1,"y":0,"z":-0.2,"interval":16,"t":9336,"event":"devicemotion"},{"x":0.1,"y":0,"z":-0.2,"interval":16,"t":9353,"event":"devicemotion"},{"x":0.1,"y":0,"z":-0.2,"interval":16,"t":9369,"event":"devicemotion"},{"x":0,"y":-0.1,"z":-0.1,"interval":16,"t":9386,"event":"devicemotion"},{"x":-0.1,"y":-0.2,"z":-0.2,"interval":16,"t":9403,"event":"devicemotion"},{"x":-0.2,"y":-0.5,"z":-0.1,"interval":16,"t":9420,"event":"devicemotion"},{"x":-0.5,"y":-0.9,"z":0.1,"interval":16,"t":9436,"event":"devicemotion"},{"x":-0.5,"y":-1.6,"z":0.2,"interval":16,"t":9453,"event":"devicemotion"},{"x":-0.5,"y":-1.6,"z":0.2,"interval":16,"t":9470,"event":"devicemotion"},{"x":0,"y":-2,"z":0.2,"interval":16,"t":9487,"event":"devicemotion"},{"x":1.2000000000000002,"y":-1.5,"z":0.4,"interval":16,"t":9503,"event":"devicemotion"},{"x":0.8,"y":-0.5,"z":0.9,"interval":16,"t":9520,"event":"devicemotion"},{"x":-0.2,"y":0.8,"z":0.9,"interval":16,"t":9536,"event":"devicemotion"},{"x":-0.4,"y":1.4000000000000001,"z":0.9,"interval":16,"t":9554,"event":"devicemotion"},{"x":-0.4,"y":1.4000000000000001,"z":0.9,"interval":16,"t":9570,"event":"devicemotion"},{"x":-0.9,"y":2,"z":1.2000000000000002,"interval":16,"t":9586,"event":"devicemotion"},{"x":-1.4000000000000001,"y":2.3000000000000003,"z":0.9,"interval":16,"t":9602,"event":"devicemotion"},{"x":-1.2000000000000002,"y":2.4000000000000004,"z":0.6000000000000001,"interval":16,"t":9619,"event":"devicemotion"},{"x":-0.4,"y":2.2,"z":0.2,"interval":16,"t":9636,"event":"devicemotion"},{"x":-0.4,"y":2.2,"z":0.2,"interval":16,"t":9653,"event":"devicemotion"},{"x":-0.30000000000000004,"y":1.8,"z":-0.30000000000000004,"interval":16,"t":9672,"event":"devicemotion"},{"x":0.30000000000000004,"y":1.3,"z":-0.4,"interval":16,"t":9686,"event":"devicemotion"},{"x":0.5,"y":0.9,"z":-0.30000000000000004,"interval":16,"t":9703,"event":"devicemotion"},{"x":0.4,"y":0.6000000000000001,"z":-0.2,"interval":16,"t":9719,"event":"devicemotion"},{"x":0.30000000000000004,"y":0.4,"z":-0.4,"interval":16,"t":9736,"event":"devicemotion"},{"x":-0.1,"y":0.1,"z":-0.5,"interval":16,"t":9753,"event":"devicemotion"},{"x":-0.1,"y":0.1,"z":-0.5,"interval":16,"t":9770,"event":"devicemotion"},{"x":0,"y":-0.1,"z":-0.5,"interval":16,"t":9787,"event":"devicemotion"},{"x":-0.2,"y":-0.30000000000000004,"z":-0.5,"interval":16,"t":9803,"event":"devicemotion"},{"x":-0.5,"y":-0.6000000000000001,"z":-0.7000000000000001,"interval":16,"t":9819,"event":"devicemotion"},{"x":-0.5,"y":-0.9,"z":-0.9,"interval":16,"t":9839,"event":"devicemotion"},{"x":-0.5,"y":-0.9,"z":-0.9,"interval":16,"t":9853,"event":"devicemotion"},{"x":-0.5,"y":-1.3,"z":-0.9,"interval":16,"t":9869,"event":"devicemotion"},{"x":-0.5,"y":-1.6,"z":-0.7000000000000001,"interval":16,"t":9887,"event":"devicemotion"},{"x":-0.5,"y":-1.9000000000000001,"z":-0.9,"interval":16,"t":9903,"event":"devicemotion"},{"x":-0.2,"y":-2.2,"z":-0.9,"interval":16,"t":9920,"event":"devicemotion"},{"x":0.30000000000000004,"y":-2.6,"z":-0.7000000000000001,"interval":16,"t":9936,"event":"devicemotion"},{"x":0.30000000000000004,"y":-2.6,"z":-0.7000000000000001,"interval":16,"t":9953,"event":"devicemotion"},{"x":0.6000000000000001,"y":-2.9000000000000004,"z":-0.5,"interval":16,"t":9969,"event":"devicemotion"},{"x":0.9,"y":-2.9000000000000004,"z":-0.6000000000000001,"interval":16,"t":9987,"event":"devicemotion"},{"x":1.2000000000000002,"y":-2.4000000000000004,"z":-0.4,"interval":16,"t":10003,"event":"devicemotion"},{"x":1.1,"y":-1.7000000000000002,"z":-0.1,"interval":16,"t":10020,"event":"devicemotion"},{"x":0.6000000000000001,"y":-0.6000000000000001,"z":0,"interval":16,"t":10037,"event":"devicemotion"},{"x":0.6000000000000001,"y":-0.6000000000000001,"z":0,"interval":16,"t":10053,"event":"devicemotion"},{"x":0.1,"y":0.5,"z":0.2,"interval":16,"t":10070,"event":"devicemotion"},{"x":-0.1,"y":1.5,"z":0.5,"interval":16,"t":10086,"event":"devicemotion"},{"x":-0.5,"y":2.5,"z":0.5,"interval":16,"t":10102,"event":"devicemotion"},{"x":-1.1,"y":3.3000000000000003,"z":-0.1,"interval":16,"t":10120,"event":"devicemotion"},{"x":-1.1,"y":3.3000000000000003,"z":-0.1,"interval":16,"t":10136,"event":"devicemotion"},{"x":-1.6,"y":3.6,"z":-0.1,"interval":16,"t":10154,"event":"devicemotion"},{"x":-1.3,"y":3.5,"z":-0.30000000000000004,"interval":16,"t":10169,"event":"devicemotion"},{"x":-1.3,"y":3.1,"z":-0.5,"interval":16,"t":10186,"event":"devicemotion"},{"x":-0.7000000000000001,"y":2.3000000000000003,"z":-0.1,"interval":16,"t":10203,"event":"devicemotion"},{"x":-0.30000000000000004,"y":1.3,"z":0.30000000000000004,"interval":16,"t":10219,"event":"devicemotion"},{"x":-0.2,"y":0.5,"z":0.2,"interval":16,"t":10236,"event":"devicemotion"},{"x":-0.2,"y":0.5,"z":0.2,"interval":16,"t":10253,"event":"devicemotion"},{"x":0.2,"y":-0.30000000000000004,"z":-0.1,"interval":16,"t":10269,"event":"devicemotion"},{"x":0.7000000000000001,"y":-1,"z":-0.2,"interval":16,"t":10286,"event":"devicemotion"},{"x":0.7000000000000001,"y":-1.6,"z":-0.1,"interval":16,"t":10303,"event":"devicemotion"},{"x":0.9,"y":-2.1,"z":0,"interval":16,"t":10320,"event":"devicemotion"},{"x":0.9,"y":-2.1,"z":0,"interval":16,"t":10336,"event":"devicemotion"},{"x":0.7000000000000001,"y":-2.6,"z":0.2,"interval":16,"t":10353,"event":"devicemotion"},{"x":1,"y":-2.8000000000000003,"z":0.2,"interval":16,"t":10371,"event":"devicemotion"},{"x":1.2000000000000002,"y":-2.7,"z":0.2,"interval":16,"t":10386,"event":"devicemotion"},{"x":1.1,"y":-2.6,"z":-0.4,"interval":16,"t":10403,"event":"devicemotion"},{"x":0.9,"y":-2.1,"z":-0.5,"interval":16,"t":10420,"event":"devicemotion"},{"x":0.9,"y":-2.1,"z":-0.5,"interval":16,"t":10436,"event":"devicemotion"},{"x":0.7000000000000001,"y":-1.8,"z":-0.4,"interval":16,"t":10453,"event":"devicemotion"},{"x":0.30000000000000004,"y":-1.2000000000000002,"z":0,"interval":16,"t":10470,"event":"devicemotion"},{"x":0.2,"y":-0.4,"z":0.5,"interval":16,"t":10488,"event":"devicemotion"},{"x":-0.1,"y":0.4,"z":0.9,"interval":16,"t":10503,"event":"devicemotion"},{"x":-0.8,"y":1.4000000000000001,"z":1,"interval":16,"t":10519,"event":"devicemotion"},{"x":-0.8,"y":1.4000000000000001,"z":1,"interval":16,"t":10536,"event":"devicemotion"},{"x":-1.1,"y":2.3000000000000003,"z":1,"interval":16,"t":10552,"event":"devicemotion"},{"x":-1.3,"y":3,"z":1.1,"interval":16,"t":10569,"event":"devicemotion"},{"x":-1.1,"y":3.3000000000000003,"z":0.8,"interval":16,"t":10588,"event":"devicemotion"},{"x":-0.9,"y":2.9000000000000004,"z":-0.4,"interval":16,"t":10604,"event":"devicemotion"},{"x":-0.9,"y":2.9000000000000004,"z":-0.4,"interval":16,"t":10621,"event":"devicemotion"},{"x":-1,"y":2.2,"z":-0.9,"interval":16,"t":10636,"event":"devicemotion"},{"x":-0.7000000000000001,"y":1.3,"z":-0.7000000000000001,"interval":16,"t":10653,"event":"devicemotion"},{"x":-0.2,"y":0.4,"z":-0.4,"interval":16,"t":10669,"event":"devicemotion"},{"x":-0.1,"y":-0.4,"z":-0.2,"interval":16,"t":10686,"event":"devicemotion"},{"x":0.2,"y":-1.1,"z":-0.2,"interval":16,"t":10703,"event":"devicemotion"},{"x":0.2,"y":-1.1,"z":-0.2,"interval":16,"t":10720,"event":"devicemotion"},{"x":0.4,"y":-1.8,"z":-0.2,"interval":16,"t":10736,"event":"devicemotion"},{"x":0.5,"y":-2.3000000000000003,"z":-0.2,"interval":16,"t":10753,"event":"devicemotion"},{"x":0.5,"y":-2.7,"z":0,"interval":16,"t":10770,"event":"devicemotion"},{"x":1,"y":-2.8000000000000003,"z":0,"interval":16,"t":10786,"event":"devicemotion"},{"x":1.1,"y":-2.5,"z":-0.1,"interval":16,"t":10803,"event":"devicemotion"},{"x":1.1,"y":-2.5,"z":-0.1,"interval":16,"t":10819,"event":"devicemotion"},{"x":0.4,"y":-1.9000000000000001,"z":-0.4,"interval":16,"t":10836,"event":"devicemotion"},{"x":0.30000000000000004,"y":-1.4000000000000001,"z":-0.7000000000000001,"interval":16,"t":10855,"event":"devicemotion"},{"x":0.2,"y":-0.9,"z":-0.5,"interval":16,"t":10871,"event":"devicemotion"},{"x":0.2,"y":-0.9,"z":-0.5,"interval":16,"t":10887,"event":"devicemotion"},{"x":0.4,"y":0.6000000000000001,"z":0.2,"interval":16,"t":10902,"event":"devicemotion"},{"x":0.4,"y":0.6000000000000001,"z":0.2,"interval":16,"t":10919,"event":"devicemotion"},{"x":-0.1,"y":1.4000000000000001,"z":0.5,"interval":16,"t":10935,"event":"devicemotion"},{"x":-0.5,"y":2.3000000000000003,"z":0.9,"interval":16,"t":10952,"event":"devicemotion"},{"x":-1,"y":3,"z":1,"interval":16,"t":10969,"event":"devicemotion"},{"x":-1.6,"y":3.2,"z":0.8,"interval":16,"t":10985,"event":"devicemotion"},{"x":-1.5,"y":3,"z":0.30000000000000004,"interval":16,"t":11002,"event":"devicemotion"},{"x":-1.5,"y":3,"z":0.30000000000000004,"interval":16,"t":11019,"event":"devicemotion"},{"x":-1.4000000000000001,"y":2.3000000000000003,"z":-0.4,"interval":16,"t":11036,"event":"devicemotion"},{"x":-0.6000000000000001,"y":1.4000000000000001,"z":-0.4,"interval":16,"t":11053,"event":"devicemotion"},{"x":-0.5,"y":0.6000000000000001,"z":-0.1,"interval":16,"t":11069,"event":"devicemotion"},{"x":0.1,"y":-0.2,"z":-0.2,"interval":16,"t":11085,"event":"devicemotion"},{"x":0.30000000000000004,"y":-1,"z":-0.30000000000000004,"interval":16,"t":11102,"event":"devicemotion"},{"x":0.30000000000000004,"y":-1,"z":-0.30000000000000004,"interval":16,"t":11119,"event":"devicemotion"},{"x":0.4,"y":-1.6,"z":-0.30000000000000004,"interval":16,"t":11136,"event":"devicemotion"},{"x":0.6000000000000001,"y":-2,"z":-0.2,"interval":16,"t":11156,"event":"devicemotion"},{"x":0.30000000000000004,"y":-2.4000000000000004,"z":-0.2,"interval":16,"t":11172,"event":"devicemotion"},{"x":0.30000000000000004,"y":-2.6,"z":-0.30000000000000004,"interval":16,"t":11186,"event":"devicemotion"},{"x":0.4,"y":-2.6,"z":-0.30000000000000004,"interval":16,"t":11203,"event":"devicemotion"},{"x":0.4,"y":-2.6,"z":-0.30000000000000004,"interval":16,"t":11220,"event":"devicemotion"},{"x":1.1,"y":-2.4000000000000004,"z":-0.30000000000000004,"interval":16,"t":11236,"event":"devicemotion"},{"x":1,"y":-2,"z":-0.30000000000000004,"interval":16,"t":11253,"event":"devicemotion"},{"x":1.1,"y":-1.3,"z":-0.2,"interval":16,"t":11270,"event":"devicemotion"},{"x":0.8,"y":-0.30000000000000004,"z":0,"interval":16,"t":11286,"event":"devicemotion"},{"x":0.8,"y":-0.30000000000000004,"z":0,"interval":16,"t":11303,"event":"devicemotion"},{"x":0.6000000000000001,"y":0.6000000000000001,"z":0.30000000000000004,"interval":16,"t":11321,"event":"devicemotion"},{"x":0.2,"y":1.6,"z":0.5,"interval":16,"t":11337,"event":"devicemotion"},{"x":-0.30000000000000004,"y":2.6,"z":0.7000000000000001,"interval":16,"t":11353,"event":"devicemotion"},{"x":-0.8,"y":3.1,"z":0.4,"interval":16,"t":11371,"event":"devicemotion"},{"x":-1.3,"y":3.3000000000000003,"z":-0.4,"interval":16,"t":11387,"event":"devicemotion"},{"x":-1.3,"y":3.3000000000000003,"z":-0.4,"interval":16,"t":11403,"event":"devicemotion"},{"x":-1.2000000000000002,"y":3,"z":-0.9,"interval":16,"t":11420,"event":"devicemotion"},{"x":-1.2000000000000002,"y":2.2,"z":-0.8,"interval":16,"t":11436,"event":"devicemotion"},{"x":-0.30000000000000004,"y":1.3,"z":-0.1,"interval":16,"t":11452,"event":"devicemotion"},{"x":-0.7000000000000001,"y":0.6000000000000001,"z":0.30000000000000004,"interval":16,"t":11469,"event":"devicemotion"},{"x":-0.7000000000000001,"y":0.6000000000000001,"z":0.30000000000000004,"interval":16,"t":11487,"event":"devicemotion"},{"x":-0.1,"y":-0.2,"z":0.2,"interval":16,"t":11503,"event":"devicemotion"},{"x":-0.1,"y":-0.9,"z":0.2,"interval":16,"t":11519,"event":"devicemotion"},{"x":0.2,"y":-1.5,"z":0.30000000000000004,"interval":16,"t":11536,"event":"devicemotion"},{"x":0.30000000000000004,"y":-1.9000000000000001,"z":0.30000000000000004,"interval":16,"t":11554,"event":"devicemotion"},{"x":0.4,"y":-2.2,"z":0.2,"interval":16,"t":11569,"event":"devicemotion"},{"x":0.4,"y":-2.2,"z":0.2,"interval":16,"t":11586,"event":"devicemotion"},{"x":0.5,"y":-2.6,"z":-0.4,"interval":16,"t":11603,"event":"devicemotion"},{"x":0.7000000000000001,"y":-2.6,"z":-0.5,"interval":16,"t":11619,"event":"devicemotion"},{"x":1.2000000000000002,"y":-2.4000000000000004,"z":-0.5,"interval":16,"t":11638,"event":"devicemotion"},{"x":0.7000000000000001,"y":-2.3000000000000003,"z":-0.6000000000000001,"interval":16,"t":11653,"event":"devicemotion"},{"x":0.7000000000000001,"y":-2.1,"z":-0.7000000000000001,"interval":16,"t":11669,"event":"devicemotion"},{"x":0.7000000000000001,"y":-2.1,"z":-0.7000000000000001,"interval":16,"t":11687,"event":"devicemotion"},{"x":1.1,"y":-1.5,"z":-0.7000000000000001,"interval":16,"t":11703,"event":"devicemotion"},{"x":0.6000000000000001,"y":-0.30000000000000004,"z":-0.4,"interval":16,"t":11720,"event":"devicemotion"},{"x":0,"y":1,"z":0.4,"interval":16,"t":11736,"event":"devicemotion"},{"x":-0.2,"y":2.2,"z":1.1,"interval":16,"t":11753,"event":"devicemotion"},{"x":-0.30000000000000004,"y":3.2,"z":1.4000000000000001,"interval":16,"t":11769,"event":"devicemotion"},{"x":-0.30000000000000004,"y":3.2,"z":1.4000000000000001,"interval":16,"t":11786,"event":"devicemotion"},{"x":-0.7000000000000001,"y":3.9000000000000004,"z":1.7000000000000002,"interval":16,"t":11803,"event":"devicemotion"},{"x":-1.2000000000000002,"y":4.5,"z":1.7000000000000002,"interval":16,"t":11819,"event":"devicemotion"},{"x":-1.8,"y":4.6000000000000005,"z":1.2000000000000002,"interval":16,"t":11836,"event":"devicemotion"},{"x":-1.8,"y":4,"z":0.8,"interval":16,"t":11853,"event":"devicemotion"},{"x":-0.7000000000000001,"y":2.9000000000000004,"z":0.9,"interval":16,"t":11871,"event":"devicemotion"},{"x":-0.7000000000000001,"y":2.9000000000000004,"z":0.9,"interval":16,"t":11887,"event":"devicemotion"},{"x":0,"y":1.8,"z":1.1,"interval":16,"t":11902,"event":"devicemotion"},{"x":0.2,"y":1,"z":0.8,"interval":16,"t":11920,"event":"devicemotion"},{"x":0.2,"y":0.1,"z":0.30000000000000004,"interval":16,"t":11936,"event":"devicemotion"},{"x":0.2,"y":-0.8,"z":-0.1,"interval":16,"t":11952,"event":"devicemotion"},{"x":0.6000000000000001,"y":-1.5,"z":-0.2,"interval":16,"t":11970,"event":"devicemotion"},{"x":0.6000000000000001,"y":-1.5,"z":-0.2,"interval":16,"t":11987,"event":"devicemotion"},{"x":0.6000000000000001,"y":-2.1,"z":-0.2,"interval":16,"t":12004,"event":"devicemotion"},{"x":0.5,"y":-2.6,"z":-0.5,"interval":16,"t":12020,"event":"devicemotion"},{"x":0.8,"y":-2.9000000000000004,"z":-0.6000000000000001,"interval":16,"t":12036,"event":"devicemotion"},{"x":0.6000000000000001,"y":-3.2,"z":-0.9,"interval":16,"t":12052,"event":"devicemotion"},{"x":0.6000000000000001,"y":-3.2,"z":-0.9,"interval":16,"t":12071,"event":"devicemotion"},{"x":0,"y":-3.2,"z":-1.2000000000000002,"interval":16,"t":12086,"event":"devicemotion"},{"x":0.4,"y":-3.4000000000000004,"z":-1.1,"interval":16,"t":12103,"event":"devicemotion"},{"x":0.8,"y":-3.4000000000000004,"z":-1.2000000000000002,"interval":16,"t":12119,"event":"devicemotion"},{"x":0.8,"y":-3.1,"z":-1.3,"interval":16,"t":12136,"event":"devicemotion"},{"x":0.8,"y":-2.4000000000000004,"z":-1.5,"interval":16,"t":12153,"event":"devicemotion"},{"x":0.8,"y":-2.4000000000000004,"z":-1.5,"interval":16,"t":12169,"event":"devicemotion"},{"x":0.8,"y":-1.6,"z":-1.4000000000000001,"interval":16,"t":12189,"event":"devicemotion"},{"x":0.6000000000000001,"y":-0.6000000000000001,"z":-0.8,"interval":16,"t":12202,"event":"devicemotion"},{"x":0.4,"y":0.7000000000000001,"z":-0.2,"interval":16,"t":12219,"event":"devicemotion"},{"x":-0.2,"y":2,"z":0.5,"interval":16,"t":12236,"event":"devicemotion"},{"x":-0.8,"y":3.2,"z":1.1,"interval":16,"t":12254,"event":"devicemotion"},{"x":-0.8,"y":3.2,"z":1.1,"interval":16,"t":12271,"event":"devicemotion"},{"x":-1.4000000000000001,"y":4.2,"z":1.6,"interval":16,"t":12287,"event":"devicemotion"},{"x":-1.6,"y":4.7,"z":1.9000000000000001,"interval":16,"t":12302,"event":"devicemotion"},{"x":-1.6,"y":4.7,"z":1.5,"interval":16,"t":12320,"event":"devicemotion"},{"x":-1.8,"y":4.4,"z":0.7000000000000001,"interval":16,"t":12336,"event":"devicemotion"},{"x":-1.2000000000000002,"y":3.7,"z":0.6000000000000001,"interval":16,"t":12352,"event":"devicemotion"},{"x":-1.2000000000000002,"y":3.7,"z":0.6000000000000001,"interval":16,"t":12369,"event":"devicemotion"},{"x":-0.5,"y":2.3000000000000003,"z":0.30000000000000004,"interval":16,"t":12386,"event":"devicemotion"},{"x":0,"y":1.1,"z":0,"interval":16,"t":12402,"event":"devicemotion"},{"x":0.6000000000000001,"y":-0.1,"z":-0.2,"interval":16,"t":12419,"event":"devicemotion"},{"x":1.2000000000000002,"y":-1.1,"z":-0.30000000000000004,"interval":16,"t":12436,"event":"devicemotion"},{"x":1.3,"y":-1.9000000000000001,"z":-0.30000000000000004,"interval":16,"t":12453,"event":"devicemotion"},{"x":1.3,"y":-1.9000000000000001,"z":-0.30000000000000004,"interval":16,"t":12470,"event":"devicemotion"},{"x":1.3,"y":-2.4000000000000004,"z":-0.30000000000000004,"interval":16,"t":12486,"event":"devicemotion"},{"x":1.2000000000000002,"y":-2.7,"z":-0.30000000000000004,"interval":16,"t":12502,"event":"devicemotion"},{"x":0.7000000000000001,"y":-2.8000000000000003,"z":-0.4,"interval":16,"t":12521,"event":"devicemotion"},{"x":0.30000000000000004,"y":-2.9000000000000004,"z":-0.6000000000000001,"interval":16,"t":12536,"event":"devicemotion"},{"x":-0.1,"y":-3.1,"z":-1,"interval":16,"t":12552,"event":"devicemotion"},{"x":-0.1,"y":-3.1,"z":-1,"interval":16,"t":12570,"event":"devicemotion"},{"x":1.1,"y":-3.5,"z":-1.5,"interval":16,"t":12586,"event":"devicemotion"},{"x":1.6,"y":-3.4000000000000004,"z":-1.2000000000000002,"interval":16,"t":12602,"event":"devicemotion"},{"x":1.9000000000000001,"y":-2.9000000000000004,"z":-1,"interval":16,"t":12619,"event":"devicemotion"},{"x":1.9000000000000001,"y":-2.9000000000000004,"z":-1,"interval":16,"t":12643,"event":"devicemotion"},{"x":1.8,"y":-2,"z":-0.8,"interval":16,"t":12655,"event":"devicemotion"},{"x":1.5,"y":-0.6000000000000001,"z":-0.4,"interval":16,"t":12669,"event":"devicemotion"},{"x":0.8,"y":0.9,"z":0.1,"interval":16,"t":12686,"event":"devicemotion"},{"x":0.2,"y":2.2,"z":0.6000000000000001,"interval":16,"t":12702,"event":"devicemotion"},{"x":-0.4,"y":3.5,"z":1.2000000000000002,"interval":16,"t":12720,"event":"devicemotion"},{"x":-1.4000000000000001,"y":4.6000000000000005,"z":1.2000000000000002,"interval":16,"t":12736,"event":"devicemotion"},{"x":-1.4000000000000001,"y":4.6000000000000005,"z":1.2000000000000002,"interval":16,"t":12754,"event":"devicemotion"},{"x":-2.6,"y":5.300000000000001,"z":1.1,"interval":16,"t":12770,"event":"devicemotion"},{"x":-3.1,"y":5.4,"z":0.6000000000000001,"interval":16,"t":12786,"event":"devicemotion"},{"x":-2.7,"y":4.7,"z":0.30000000000000004,"interval":16,"t":12802,"event":"devicemotion"},{"x":-2,"y":3.3000000000000003,"z":0.6000000000000001,"interval":16,"t":12819,"event":"devicemotion"},{"x":-1,"y":2,"z":1,"interval":16,"t":12837,"event":"devicemotion"},{"x":-1,"y":2,"z":1,"interval":16,"t":12855,"event":"devicemotion"},{"x":-0.4,"y":1,"z":0.8,"interval":16,"t":12869,"event":"devicemotion"},{"x":0.2,"y":0,"z":0.4,"interval":16,"t":12886,"event":"devicemotion"},{"x":0.5,"y":-0.8,"z":0.30000000000000004,"interval":16,"t":12902,"event":"devicemotion"},{"x":0.5,"y":-1.4000000000000001,"z":0.30000000000000004,"interval":16,"t":12921,"event":"devicemotion"},{"x":0.5,"y":-1.8,"z":0,"interval":16,"t":12935,"event":"devicemotion"},{"x":0.5,"y":-1.8,"z":0,"interval":16,"t":12953,"event":"devicemotion"},{"x":0.5,"y":-2.1,"z":-0.1,"interval":16,"t":12969,"event":"devicemotion"},{"x":0.5,"y":-2.5,"z":-0.30000000000000004,"interval":16,"t":12986,"event":"devicemotion"},{"x":0.4,"y":-2.7,"z":-0.5,"interval":16,"t":13002,"event":"devicemotion"},{"x":0.5,"y":-2.9000000000000004,"z":-0.6000000000000001,"interval":16,"t":13019,"event":"devicemotion"},{"x":0.30000000000000004,"y":-3.1,"z":-0.8,"interval":16,"t":13042,"event":"devicemotion"},{"x":0.30000000000000004,"y":-3.1,"z":-0.8,"interval":16,"t":13052,"event":"devicemotion"},{"x":0.8,"y":-3.4000000000000004,"z":-1,"interval":16,"t":13069,"event":"devicemotion"},{"x":0.9,"y":-3.4000000000000004,"z":-1.2000000000000002,"interval":16,"t":13085,"event":"devicemotion"},{"x":1.5,"y":-3.2,"z":-1.3,"interval":16,"t":13102,"event":"devicemotion"},{"x":2,"y":-2.8000000000000003,"z":-1.2000000000000002,"interval":16,"t":13119,"event":"devicemotion"},{"x":2,"y":-2.8000000000000003,"z":-1.2000000000000002,"interval":16,"t":13136,"event":"devicemotion"},{"x":1.9000000000000001,"y":-2,"z":-0.9,"interval":16,"t":13155,"event":"devicemotion"},{"x":1.5,"y":-0.9,"z":-0.5,"interval":16,"t":13169,"event":"devicemotion"},{"x":1,"y":0.2,"z":0,"interval":16,"t":13186,"event":"devicemotion"},{"x":0.2,"y":1.2000000000000002,"z":0.4,"interval":16,"t":13203,"event":"devicemotion"},{"x":-0.6000000000000001,"y":2.3000000000000003,"z":0.9,"interval":16,"t":13219,"event":"devicemotion"},{"x":-0.6000000000000001,"y":2.3000000000000003,"z":0.9,"interval":16,"t":13236,"event":"devicemotion"},{"x":-1.4000000000000001,"y":3.1,"z":1.3,"interval":16,"t":13252,"event":"devicemotion"},{"x":-1.5,"y":3.7,"z":1.3,"interval":16,"t":13271,"event":"devicemotion"},{"x":-1.9000000000000001,"y":4.1000000000000005,"z":1.1,"interval":16,"t":13286,"event":"devicemotion"},{"x":-2.1,"y":4.2,"z":0.4,"interval":16,"t":13303,"event":"devicemotion"},{"x":-2.1,"y":4.2,"z":0.4,"interval":16,"t":13319,"event":"devicemotion"},{"x":-2.5,"y":3.9000000000000004,"z":-0.7000000000000001,"interval":16,"t":13336,"event":"devicemotion"},{"x":-2.2,"y":3.3000000000000003,"z":-1.1,"interval":16,"t":13353,"event":"devicemotion"},{"x":-1.4000000000000001,"y":2.3000000000000003,"z":-1,"interval":16,"t":13369,"event":"devicemotion"},{"x":-0.9,"y":1.3,"z":-0.6000000000000001,"interval":16,"t":13386,"event":"devicemotion"},{"x":-0.5,"y":0.4,"z":-0.5,"interval":16,"t":13403,"event":"devicemotion"},{"x":-0.2,"y":-0.30000000000000004,"z":-0.4,"interval":16,"t":13419,"event":"devicemotion"},{"x":-0.2,"y":-0.30000000000000004,"z":-0.4,"interval":16,"t":13436,"event":"devicemotion"},{"x":0.2,"y":-0.9,"z":-0.5,"interval":16,"t":13452,"event":"devicemotion"},{"x":0.30000000000000004,"y":-1.4000000000000001,"z":-0.6000000000000001,"interval":16,"t":13472,"event":"devicemotion"},{"x":0.30000000000000004,"y":-1.9000000000000001,"z":-0.4,"interval":16,"t":13486,"event":"devicemotion"},{"x":0.7000000000000001,"y":-2.2,"z":-0.4,"interval":16,"t":13502,"event":"devicemotion"},{"x":0.7000000000000001,"y":-2.2,"z":-0.4,"interval":16,"t":13519,"event":"devicemotion"},{"x":0.6000000000000001,"y":-2.5,"z":-0.4,"interval":16,"t":13536,"event":"devicemotion"},{"x":0.9,"y":-2.8000000000000003,"z":-0.5,"interval":16,"t":13553,"event":"devicemotion"},{"x":1.1,"y":-3,"z":-0.5,"interval":16,"t":13569,"event":"devicemotion"},{"x":1.2000000000000002,"y":-3,"z":-0.4,"interval":16,"t":13586,"event":"devicemotion"},{"x":1.5,"y":-2.8000000000000003,"z":-0.4,"interval":16,"t":13603,"event":"devicemotion"},{"x":1.5,"y":-2.8000000000000003,"z":-0.4,"interval":16,"t":13619,"event":"devicemotion"},{"x":2,"y":-2.4000000000000004,"z":-0.1,"interval":16,"t":13642,"event":"devicemotion"},{"x":2.3000000000000003,"y":-1.9000000000000001,"z":0.2,"interval":16,"t":13652,"event":"devicemotion"},{"x":2,"y":-1,"z":0.5,"interval":16,"t":13669,"event":"devicemotion"},{"x":0.7000000000000001,"y":0.4,"z":0.8,"interval":16,"t":13687,"event":"devicemotion"},{"x":-0.6000000000000001,"y":1.7000000000000002,"z":1.2000000000000002,"interval":16,"t":13703,"event":"devicemotion"},{"x":-0.6000000000000001,"y":1.7000000000000002,"z":1.2000000000000002,"interval":16,"t":13719,"event":"devicemotion"},{"x":-1.2000000000000002,"y":2.8000000000000003,"z":1.6,"interval":16,"t":13736,"event":"devicemotion"},{"x":-2.1,"y":3.7,"z":1.6,"interval":16,"t":13753,"event":"devicemotion"},{"x":-3.1,"y":4.5,"z":1.5,"interval":16,"t":13769,"event":"devicemotion"},{"x":-3.4000000000000004,"y":4.800000000000001,"z":1.1,"interval":16,"t":13787,"event":"devicemotion"},{"x":-3.4000000000000004,"y":4.800000000000001,"z":1.1,"interval":16,"t":13803,"event":"devicemotion"},{"x":-3.2,"y":4.5,"z":0.6000000000000001,"interval":16,"t":13820,"event":"devicemotion"},{"x":-2.7,"y":3.9000000000000004,"z":-0.30000000000000004,"interval":16,"t":13837,"event":"devicemotion"},{"x":-1.9000000000000001,"y":2.9000000000000004,"z":-0.4,"interval":16,"t":13852,"event":"devicemotion"},{"x":-0.9,"y":1.5,"z":-0.4,"interval":16,"t":13872,"event":"devicemotion"},{"x":-0.1,"y":0.30000000000000004,"z":-0.30000000000000004,"interval":16,"t":13886,"event":"devicemotion"},{"x":0.9,"y":-0.6000000000000001,"z":-0.2,"interval":16,"t":13903,"event":"devicemotion"},{"x":0.9,"y":-0.6000000000000001,"z":-0.2,"interval":16,"t":13919,"event":"devicemotion"},{"x":1.4000000000000001,"y":-1.3,"z":-0.2,"interval":16,"t":13936,"event":"devicemotion"},{"x":1.5,"y":-1.8,"z":0,"interval":16,"t":13953,"event":"devicemotion"},{"x":1,"y":-2,"z":0,"interval":16,"t":13969,"event":"devicemotion"},{"x":0.7000000000000001,"y":-2.1,"z":-0.2,"interval":16,"t":13986,"event":"devicemotion"},{"x":0.30000000000000004,"y":-2.2,"z":-0.30000000000000004,"interval":16,"t":14004,"event":"devicemotion"},{"x":0.30000000000000004,"y":-2.2,"z":-0.30000000000000004,"interval":16,"t":14019,"event":"devicemotion"},{"x":0.2,"y":-2.3000000000000003,"z":-0.5,"interval":16,"t":14036,"event":"devicemotion"},{"x":0.4,"y":-2.5,"z":-0.5,"interval":16,"t":14052,"event":"devicemotion"},{"x":0.8,"y":-2.8000000000000003,"z":-0.7000000000000001,"interval":16,"t":14069,"event":"devicemotion"},{"x":0.8,"y":-2.8000000000000003,"z":-0.7000000000000001,"interval":16,"t":14086,"event":"devicemotion"},{"x":1.4000000000000001,"y":-3.2,"z":-0.7000000000000001,"interval":16,"t":14103,"event":"devicemotion"},{"x":1.9000000000000001,"y":-3.2,"z":-0.7000000000000001,"interval":16,"t":14119,"event":"devicemotion"},{"x":2.5,"y":-2.8000000000000003,"z":-0.6000000000000001,"interval":16,"t":14136,"event":"devicemotion"},{"x":1.9000000000000001,"y":-2,"z":-0.2,"interval":16,"t":14152,"event":"devicemotion"},{"x":1.1,"y":-0.8,"z":0,"interval":16,"t":14169,"event":"devicemotion"},{"x":0.30000000000000004,"y":0.30000000000000004,"z":0.2,"interval":16,"t":14186,"event":"devicemotion"},{"x":0.30000000000000004,"y":0.30000000000000004,"z":0.2,"interval":16,"t":14203,"event":"devicemotion"},{"x":0,"y":1.1,"z":0.4,"interval":16,"t":14219,"event":"devicemotion"},{"x":0,"y":1.7000000000000002,"z":0.7000000000000001,"interval":16,"t":14237,"event":"devicemotion"},{"x":0,"y":2.3000000000000003,"z":0.8,"interval":16,"t":14252,"event":"devicemotion"},{"x":-0.2,"y":2.8000000000000003,"z":0.8,"interval":16,"t":14269,"event":"devicemotion"},{"x":-0.2,"y":3.2,"z":0.7000000000000001,"interval":16,"t":14286,"event":"devicemotion"},{"x":-0.2,"y":3.2,"z":0.7000000000000001,"interval":16,"t":14304,"event":"devicemotion"},{"x":-0.8,"y":3.5,"z":0.1,"interval":16,"t":14320,"event":"devicemotion"},{"x":-1,"y":3.5,"z":-0.4,"interval":16,"t":14336,"event":"devicemotion"},{"x":-1.1,"y":3.1,"z":-0.6000000000000001,"interval":16,"t":14353,"event":"devicemotion"},{"x":-0.6000000000000001,"y":2.3000000000000003,"z":-0.4,"interval":16,"t":14371,"event":"devicemotion"},{"x":-0.1,"y":1.5,"z":-0.2,"interval":16,"t":14386,"event":"devicemotion"},{"x":-0.1,"y":1.5,"z":-0.2,"interval":16,"t":14402,"event":"devicemotion"},{"x":0.30000000000000004,"y":0.6000000000000001,"z":-0.2,"interval":16,"t":14419,"event":"devicemotion"},{"x":0.30000000000000004,"y":-0.2,"z":-0.2,"interval":16,"t":14436,"event":"devicemotion"},{"x":0.7000000000000001,"y":-0.9,"z":0,"interval":16,"t":14452,"event":"devicemotion"},{"x":1.1,"y":-1.4000000000000001,"z":0.2,"interval":16,"t":14471,"event":"devicemotion"},{"x":0.5,"y":-1.6,"z":0.2,"interval":16,"t":14487,"event":"devicemotion"},{"x":0.5,"y":-1.6,"z":0.2,"interval":16,"t":14502,"event":"devicemotion"},{"x":0.5,"y":-1.6,"z":-0.1,"interval":16,"t":14519,"event":"devicemotion"},{"x":-0.1,"y":-1.7000000000000002,"z":-0.30000000000000004,"interval":16,"t":14536,"event":"devicemotion"},{"x":0.2,"y":-2.1,"z":0,"interval":16,"t":14576,"event":"devicemotion"},{"x":0.2,"y":-2.2,"z":-0.2,"interval":16,"t":14590,"event":"devicemotion"},{"x":0.4,"y":-2.3000000000000003,"z":-0.5,"interval":16,"t":14602,"event":"devicemotion"},{"x":0.5,"y":-2.4000000000000004,"z":-0.2,"interval":16,"t":14619,"event":"devicemotion"},{"x":1,"y":-2.2,"z":0,"interval":16,"t":14635,"event":"devicemotion"},{"x":0.9,"y":-1.7000000000000002,"z":0.2,"interval":16,"t":14652,"event":"devicemotion"},{"x":1,"y":-1,"z":0.6000000000000001,"interval":16,"t":14669,"event":"devicemotion"},{"x":1,"y":-1,"z":0.6000000000000001,"interval":16,"t":14686,"event":"devicemotion"},{"x":0.5,"y":-0.4,"z":0.7000000000000001,"interval":16,"t":14703,"event":"devicemotion"},{"x":-0.30000000000000004,"y":0.4,"z":0.7000000000000001,"interval":16,"t":14720,"event":"devicemotion"},{"x":-1,"y":1.4000000000000001,"z":1,"interval":16,"t":14736,"event":"devicemotion"},{"x":-0.9,"y":2,"z":1.3,"interval":16,"t":14752,"event":"devicemotion"},{"x":-0.9,"y":2,"z":1.3,"interval":16,"t":14772,"event":"devicemotion"},{"x":-0.6000000000000001,"y":2.4000000000000004,"z":1.2000000000000002,"interval":16,"t":14788,"event":"devicemotion"},{"x":-0.30000000000000004,"y":2.9000000000000004,"z":1.1,"interval":16,"t":14803,"event":"devicemotion"},{"x":-0.5,"y":3.3000000000000003,"z":0.6000000000000001,"interval":16,"t":14819,"event":"devicemotion"},{"x":-0.6000000000000001,"y":3.3000000000000003,"z":0,"interval":16,"t":14836,"event":"devicemotion"},{"x":-1,"y":3.1,"z":-0.6000000000000001,"interval":16,"t":14853,"event":"devicemotion"},{"x":-1,"y":2.6,"z":-0.9,"interval":16,"t":14869,"event":"devicemotion"},{"x":-1,"y":2.6,"z":-0.9,"interval":16,"t":14886,"event":"devicemotion"},{"x":-0.5,"y":1.6,"z":-0.5,"interval":16,"t":14902,"event":"devicemotion"},{"x":-0.30000000000000004,"y":0.7000000000000001,"z":-0.1,"interval":16,"t":14919,"event":"devicemotion"},{"x":0.30000000000000004,"y":-0.1,"z":-0.1,"interval":16,"t":14935,"event":"devicemotion"},{"x":0.4,"y":-0.8,"z":-0.30000000000000004,"interval":16,"t":14953,"event":"devicemotion"},{"x":0.30000000000000004,"y":-1.3,"z":-0.30000000000000004,"interval":16,"t":14971,"event":"devicemotion"},{"x":0.30000000000000004,"y":-1.3,"z":-0.30000000000000004,"interval":16,"t":14987,"event":"devicemotion"},{"x":0.5,"y":-1.8,"z":-0.30000000000000004,"interval":16,"t":15002,"event":"devicemotion"},{"x":0.6000000000000001,"y":-2.2,"z":-0.2,"interval":16,"t":15019,"event":"devicemotion"},{"x":0.4,"y":-2.4000000000000004,"z":-0.2,"interval":16,"t":15036,"event":"devicemotion"},{"x":0.4,"y":-2.5,"z":-0.4,"interval":16,"t":15052,"event":"devicemotion"},{"x":0.4,"y":-2.5,"z":-0.4,"interval":16,"t":15071,"event":"devicemotion"},{"x":0.2,"y":-2.4000000000000004,"z":-0.5,"interval":16,"t":15086,"event":"devicemotion"},{"x":0.4,"y":-2.5,"z":-0.8,"interval":16,"t":15102,"event":"devicemotion"},{"x":0.9,"y":-2.5,"z":-0.7000000000000001,"interval":16,"t":15120,"event":"devicemotion"},{"x":1.3,"y":-2.4000000000000004,"z":-0.4,"interval":16,"t":15136,"event":"devicemotion"},{"x":0.9,"y":-1.8,"z":0,"interval":16,"t":15152,"event":"devicemotion"},{"x":0.9,"y":-1.8,"z":0,"interval":16,"t":15170,"event":"devicemotion"},{"x":0.4,"y":-1,"z":0.1,"interval":16,"t":15187,"event":"devicemotion"},{"x":0,"y":-0.2,"z":0,"interval":16,"t":15203,"event":"devicemotion"},{"x":-0.1,"y":0.5,"z":0.2,"interval":16,"t":15219,"event":"devicemotion"},{"x":0.4,"y":0.9,"z":0.7000000000000001,"interval":16,"t":15237,"event":"devicemotion"},{"x":0.4,"y":1.5,"z":0.7000000000000001,"interval":16,"t":15252,"event":"devicemotion"},{"x":0.4,"y":1.5,"z":0.7000000000000001,"interval":16,"t":15269,"event":"devicemotion"},{"x":0.30000000000000004,"y":2.2,"z":0.5,"interval":16,"t":15286,"event":"devicemotion"},{"x":0.1,"y":2.8000000000000003,"z":0.6000000000000001,"interval":16,"t":15302,"event":"devicemotion"},{"x":-0.9,"y":3.3000000000000003,"z":0.8,"interval":16,"t":15320,"event":"devicemotion"},{"x":-1.7000000000000002,"y":3.6,"z":1.1,"interval":16,"t":15336,"event":"devicemotion"},{"x":-1.7000000000000002,"y":3.6,"z":1.1,"interval":16,"t":15353,"event":"devicemotion"},{"x":-1.9000000000000001,"y":3.4000000000000004,"z":1.2000000000000002,"interval":16,"t":15369,"event":"devicemotion"},{"x":-2,"y":3,"z":1.4000000000000001,"interval":16,"t":15386,"event":"devicemotion"},{"x":-1.1,"y":2,"z":1,"interval":16,"t":15403,"event":"devicemotion"},{"x":-0.9,"y":1,"z":0.7000000000000001,"interval":16,"t":15419,"event":"devicemotion"},{"x":-0.9,"y":1,"z":0.7000000000000001,"interval":16,"t":15436,"event":"devicemotion"},{"x":-0.30000000000000004,"y":-0.5,"z":0.2,"interval":16,"t":15452,"event":"devicemotion"},{"x":-0.30000000000000004,"y":-0.5,"z":0.2,"interval":16,"t":15469,"event":"devicemotion"},{"x":0.2,"y":-1.2000000000000002,"z":0.1,"interval":16,"t":15486,"event":"devicemotion"},{"x":0.5,"y":-1.7000000000000002,"z":0.1,"interval":16,"t":15503,"event":"devicemotion"},{"x":0.4,"y":-2,"z":-0.1,"interval":16,"t":15520,"event":"devicemotion"},{"x":0.4,"y":-2.5,"z":-0.7000000000000001,"interval":16,"t":15536,"event":"devicemotion"},{"x":0.4,"y":-2.5,"z":-0.7000000000000001,"interval":16,"t":15552,"event":"devicemotion"},{"x":0.4,"y":-2.6,"z":-0.8,"interval":16,"t":15569,"event":"devicemotion"},{"x":0.6000000000000001,"y":-2.7,"z":-0.7000000000000001,"interval":16,"t":15586,"event":"devicemotion"},{"x":1,"y":-2.7,"z":-0.5,"interval":16,"t":15603,"event":"devicemotion"},{"x":1.5,"y":-2.4000000000000004,"z":-0.4,"interval":16,"t":15619,"event":"devicemotion"},{"x":1.5,"y":-2.4000000000000004,"z":-0.4,"interval":16,"t":15640,"event":"devicemotion"},{"x":1.5,"y":-2.4000000000000004,"z":-0.4,"interval":16,"t":15654,"event":"devicemotion"},{"x":0.6000000000000001,"y":-0.5,"z":-0.30000000000000004,"interval":16,"t":15669,"event":"devicemotion"},{"x":-0.1,"y":0.5,"z":-0.30000000000000004,"interval":16,"t":15685,"event":"devicemotion"},{"x":-0.7000000000000001,"y":1.5,"z":-0.2,"interval":16,"t":15702,"event":"devicemotion"},{"x":-0.9,"y":2.3000000000000003,"z":-0.1,"interval":16,"t":15719,"event":"devicemotion"},{"x":-0.6000000000000001,"y":2.7,"z":-0.30000000000000004,"interval":16,"t":15736,"event":"devicemotion"},{"x":-0.6000000000000001,"y":2.7,"z":-0.30000000000000004,"interval":16,"t":15752,"event":"devicemotion"},{"x":-1.1,"y":2.7,"z":-0.5,"interval":16,"t":15769,"event":"devicemotion"},{"x":-0.8,"y":2.5,"z":-0.6000000000000001,"interval":16,"t":15786,"event":"devicemotion"},{"x":-0.4,"y":1.9000000000000001,"z":-0.4,"interval":16,"t":15803,"event":"devicemotion"},{"x":0,"y":1.2000000000000002,"z":0.1,"interval":16,"t":15819,"event":"devicemotion"},{"x":0.1,"y":0.6000000000000001,"z":0.5,"interval":16,"t":15836,"event":"devicemotion"},{"x":0.1,"y":0.6000000000000001,"z":0.5,"interval":16,"t":15852,"event":"devicemotion"},{"x":0,"y":0.1,"z":0.6000000000000001,"interval":16,"t":15870,"event":"devicemotion"},{"x":0,"y":-0.4,"z":0.5,"interval":16,"t":15887,"event":"devicemotion"},{"x":-0.1,"y":-0.6000000000000001,"z":0.5,"interval":16,"t":15902,"event":"devicemotion"},{"x":0.2,"y":-0.9,"z":0.6000000000000001,"interval":16,"t":15919,"event":"devicemotion"},{"x":-0.1,"y":-1,"z":0.4,"interval":16,"t":15940,"event":"devicemotion"},{"x":-0.1,"y":-1,"z":0.4,"interval":16,"t":15952,"event":"devicemotion"},{"x":0.2,"y":-1,"z":0.2,"interval":16,"t":15969,"event":"devicemotion"},{"x":0.4,"y":-0.8,"z":0.30000000000000004,"interval":16,"t":15985,"event":"devicemotion"},{"x":-0.1,"y":-0.5,"z":0.2,"interval":16,"t":16002,"event":"devicemotion"},{"x":0.4,"y":-0.30000000000000004,"z":-0.2,"interval":16,"t":16019,"event":"devicemotion"},{"x":0.4,"y":-0.30000000000000004,"z":-0.2,"interval":16,"t":16038,"event":"devicemotion"},{"x":0.4,"y":-0.2,"z":-0.1,"interval":16,"t":16052,"event":"devicemotion"},{"x":0.1,"y":-0.1,"z":0,"interval":16,"t":16069,"event":"devicemotion"},{"x":0,"y":0.1,"z":-0.1,"interval":16,"t":16086,"event":"devicemotion"},{"x":-0.2,"y":0.2,"z":-0.2,"interval":16,"t":16103,"event":"devicemotion"},{"x":-0.2,"y":0.30000000000000004,"z":-0.30000000000000004,"interval":16,"t":16119,"event":"devicemotion"},{"x":-0.2,"y":0.30000000000000004,"z":-0.30000000000000004,"interval":16,"t":16136,"event":"devicemotion"},{"x":0,"y":0.30000000000000004,"z":-0.2,"interval":16,"t":16152,"event":"devicemotion"},{"x":-0.1,"y":0.30000000000000004,"z":-0.2,"interval":16,"t":16169,"event":"devicemotion"},{"x":0,"y":0.4,"z":-0.2,"interval":16,"t":16186,"event":"devicemotion"},{"x":-0.1,"y":0.4,"z":-0.1,"interval":16,"t":16203,"event":"devicemotion"},{"x":0,"y":0.4,"z":0,"interval":16,"t":16219,"event":"devicemotion"},{"x":0,"y":0.4,"z":0,"interval":16,"t":16241,"event":"devicemotion"},{"x":-0.1,"y":0.4,"z":0,"interval":16,"t":16252,"event":"devicemotion"},{"x":-0.30000000000000004,"y":0.4,"z":0,"interval":16,"t":16270,"event":"devicemotion"},{"x":-0.1,"y":0.2,"z":0,"interval":16,"t":16286,"event":"devicemotion"},{"x":0.1,"y":0.1,"z":0,"interval":16,"t":16303,"event":"devicemotion"},{"x":0.1,"y":0.1,"z":0,"interval":16,"t":16319,"event":"devicemotion"},{"x":-0.1,"y":0,"z":-0.1,"interval":16,"t":16336,"event":"devicemotion"},{"x":-0.30000000000000004,"y":-0.1,"z":-0.1,"interval":16,"t":16353,"event":"devicemotion"},{"x":0,"y":-0.4,"z":-0.1,"interval":16,"t":16369,"event":"devicemotion"},{"x":0.30000000000000004,"y":-0.6000000000000001,"z":-0.1,"interval":16,"t":16386,"event":"devicemotion"},{"x":0.30000000000000004,"y":-0.5,"z":0,"interval":16,"t":16403,"event":"devicemotion"},{"x":0.1,"y":-0.4,"z":-0.2,"interval":16,"t":16420,"event":"devicemotion"},{"x":0.1,"y":-0.4,"z":-0.2,"interval":16,"t":16436,"event":"devicemotion"},{"x":0,"y":-0.30000000000000004,"z":-0.30000000000000004,"interval":16,"t":16453,"event":"devicemotion"},{"x":0.1,"y":-0.30000000000000004,"z":-0.5,"interval":16,"t":16469,"event":"devicemotion"},{"x":0.1,"y":-0.30000000000000004,"z":-0.5,"interval":16,"t":16487,"event":"devicemotion"},{"x":0.1,"y":-0.4,"z":-0.4,"interval":16,"t":16503,"event":"devicemotion"},{"x":0.1,"y":-0.4,"z":-0.4,"interval":16,"t":16521,"event":"devicemotion"},{"x":0.1,"y":-0.4,"z":-0.2,"interval":16,"t":16536,"event":"devicemotion"},{"x":-0.4,"y":-0.30000000000000004,"z":-0.4,"interval":16,"t":16553,"event":"devicemotion"},{"x":0.1,"y":-0.4,"z":-0.4,"interval":16,"t":16569,"event":"devicemotion"},{"x":0.1,"y":-0.6000000000000001,"z":-0.30000000000000004,"interval":16,"t":16586,"event":"devicemotion"},{"x":-0.1,"y":-0.9,"z":-0.2,"interval":16,"t":16602,"event":"devicemotion"},{"x":-0.1,"y":-0.9,"z":-0.2,"interval":16,"t":16619,"event":"devicemotion"},{"x":0.30000000000000004,"y":-1.3,"z":0.1,"interval":16,"t":16637,"event":"devicemotion"},{"x":1.6,"y":-1.4000000000000001,"z":-0.2,"interval":16,"t":16652,"event":"devicemotion"},{"x":2.3000000000000003,"y":-0.4,"z":0.8,"interval":16,"t":16669,"event":"devicemotion"},{"x":2,"y":1.9000000000000001,"z":1.4000000000000001,"interval":16,"t":16686,"event":"devicemotion"},{"x":0.30000000000000004,"y":4,"z":0.5,"interval":16,"t":16703,"event":"devicemotion"},{"x":0.30000000000000004,"y":4,"z":0.5,"interval":16,"t":16719,"event":"devicemotion"},{"x":-2,"y":5,"z":0.2,"interval":16,"t":16737,"event":"devicemotion"},{"x":-3.3000000000000003,"y":5,"z":1,"interval":16,"t":16754,"event":"devicemotion"},{"x":-3.7,"y":3.9000000000000004,"z":1.2000000000000002,"interval":16,"t":16769,"event":"devicemotion"},{"x":-3.9000000000000004,"y":2.5,"z":0.9,"interval":16,"t":16787,"event":"devicemotion"},{"x":-3.1,"y":0.7000000000000001,"z":0.8,"interval":16,"t":16802,"event":"devicemotion"},{"x":-3.1,"y":0.7000000000000001,"z":0.8,"interval":16,"t":16819,"event":"devicemotion"},{"x":-2.4000000000000004,"y":-1.4000000000000001,"z":0.7000000000000001,"interval":16,"t":16837,"event":"devicemotion"},{"x":-1.3,"y":-3.5,"z":0.7000000000000001,"interval":16,"t":16852,"event":"devicemotion"},{"x":0.5,"y":-5.300000000000001,"z":0.1,"interval":16,"t":16869,"event":"devicemotion"},{"x":2,"y":-6.6000000000000005,"z":-0.8,"interval":16,"t":16886,"event":"devicemotion"},{"x":2.5,"y":-6.7,"z":-1.4000000000000001,"interval":16,"t":16904,"event":"devicemotion"},{"x":2.5,"y":-6.7,"z":-1.4000000000000001,"interval":16,"t":16920,"event":"devicemotion"},{"x":3,"y":-5.4,"z":-0.4,"interval":16,"t":16939,"event":"devicemotion"},{"x":3.1,"y":-2.5,"z":0.1,"interval":16,"t":16953,"event":"devicemotion"},{"x":2.3000000000000003,"y":1.1,"z":0.30000000000000004,"interval":16,"t":16969,"event":"devicemotion"},{"x":0.30000000000000004,"y":4.1000000000000005,"z":0.5,"interval":16,"t":16986,"event":"devicemotion"},{"x":0.30000000000000004,"y":4.1000000000000005,"z":0.5,"interval":16,"t":17002,"event":"devicemotion"},{"x":-2.3000000000000003,"y":6.300000000000001,"z":0,"interval":16,"t":17019,"event":"devicemotion"},{"x":-4.4,"y":7,"z":-0.8,"interval":16,"t":17036,"event":"devicemotion"},{"x":-5,"y":6.2,"z":-1.4000000000000001,"interval":16,"t":17052,"event":"devicemotion"},{"x":-3.4000000000000004,"y":3.5,"z":-1.4000000000000001,"interval":16,"t":17070,"event":"devicemotion"},{"x":-1.1,"y":-0.7000000000000001,"z":-1.3,"interval":16,"t":17086,"event":"devicemotion"},{"x":-1.1,"y":-0.7000000000000001,"z":-1.3,"interval":16,"t":17102,"event":"devicemotion"},{"x":1.5,"y":-4.4,"z":-0.7000000000000001,"interval":16,"t":17119,"event":"devicemotion"},{"x":4.4,"y":-7.300000000000001,"z":-1.2000000000000002,"interval":16,"t":17136,"event":"devicemotion"},{"x":5.9,"y":-7.800000000000001,"z":-1.5,"interval":16,"t":17152,"event":"devicemotion"},{"x":4.800000000000001,"y":-5.4,"z":-0.8,"interval":16,"t":17169,"event":"devicemotion"},{"x":1.6,"y":-1,"z":0,"interval":16,"t":17186,"event":"devicemotion"},{"x":1.6,"y":-1,"z":0,"interval":16,"t":17203,"event":"devicemotion"},{"x":-2.3000000000000003,"y":3.6,"z":0.2,"interval":16,"t":17219,"event":"devicemotion"},{"x":-6,"y":6.4,"z":0.8,"interval":16,"t":17239,"event":"devicemotion"},{"x":-7.1000000000000005,"y":7.1000000000000005,"z":1,"interval":16,"t":17252,"event":"devicemotion"},{"x":-5.9,"y":5.300000000000001,"z":1.1,"interval":16,"t":17269,"event":"devicemotion"},{"x":-4.1000000000000005,"y":2,"z":0.5,"interval":16,"t":17287,"event":"devicemotion"},{"x":-4.1000000000000005,"y":2,"z":0.5,"interval":16,"t":17303,"event":"devicemotion"},{"x":-0.4,"y":-2.5,"z":1.2000000000000002,"interval":16,"t":17320,"event":"devicemotion"},{"x":5,"y":-6.800000000000001,"z":1,"interval":16,"t":17336,"event":"devicemotion"},{"x":7.9,"y":-8.4,"z":0.30000000000000004,"interval":16,"t":17352,"event":"devicemotion"},{"x":6.9,"y":-6.4,"z":0.9,"interval":16,"t":17370,"event":"devicemotion"},{"x":3.5,"y":-1.9000000000000001,"z":1.4000000000000001,"interval":16,"t":17386,"event":"devicemotion"},{"x":3.5,"y":-1.9000000000000001,"z":1.4000000000000001,"interval":16,"t":17403,"event":"devicemotion"},{"x":-1.2000000000000002,"y":2.9000000000000004,"z":1.1,"interval":16,"t":17419,"event":"devicemotion"},{"x":-5,"y":6.7,"z":0.7000000000000001,"interval":16,"t":17436,"event":"devicemotion"},{"x":-7,"y":8.200000000000001,"z":0.1,"interval":16,"t":17452,"event":"devicemotion"},{"x":-6.5,"y":7,"z":0,"interval":16,"t":17469,"event":"devicemotion"},{"x":-6.5,"y":7,"z":0,"interval":16,"t":17491,"event":"devicemotion"},{"x":-3.2,"y":2.3000000000000003,"z":-0.8,"interval":16,"t":17502,"event":"devicemotion"},{"x":7.1000000000000005,"y":-7.6000000000000005,"z":-0.2,"interval":16,"t":17519,"event":"devicemotion"},{"x":9.600000000000001,"y":-8.8,"z":-0.7000000000000001,"interval":16,"t":17536,"event":"devicemotion"},{"x":7.6000000000000005,"y":-6.1000000000000005,"z":-0.2,"interval":16,"t":17554,"event":"devicemotion"},{"x":1.2000000000000002,"y":-0.30000000000000004,"z":0.30000000000000004,"interval":16,"t":17569,"event":"devicemotion"},{"x":1.2000000000000002,"y":-0.30000000000000004,"z":0.30000000000000004,"interval":16,"t":17586,"event":"devicemotion"},{"x":-5,"y":5,"z":0.6000000000000001,"interval":16,"t":17603,"event":"devicemotion"},{"x":-8.700000000000001,"y":8.200000000000001,"z":0.9,"interval":16,"t":17619,"event":"devicemotion"},{"x":-8.5,"y":7.9,"z":1,"interval":16,"t":17636,"event":"devicemotion"},{"x":-5,"y":3.2,"z":0.1,"interval":16,"t":17652,"event":"devicemotion"},{"x":-5,"y":3.2,"z":0.1,"interval":16,"t":17669,"event":"devicemotion"},{"x":2,"y":-3.6,"z":0.8,"interval":16,"t":17688,"event":"devicemotion"},{"x":8.9,"y":-8,"z":0.30000000000000004,"interval":16,"t":17703,"event":"devicemotion"},{"x":9.3,"y":-7.4,"z":-1.8,"interval":16,"t":17719,"event":"devicemotion"},{"x":3.6,"y":-2.9000000000000004,"z":-1.8,"interval":16,"t":17736,"event":"devicemotion"},{"x":-3.4000000000000004,"y":2.5,"z":-1,"interval":16,"t":17752,"event":"devicemotion"},{"x":-6.5,"y":5.9,"z":-0.1,"interval":16,"t":17769,"event":"devicemotion"},{"x":-6.5,"y":5.9,"z":-0.1,"interval":16,"t":17786,"event":"devicemotion"},{"x":-6.1000000000000005,"y":5.7,"z":-0.4,"interval":16,"t":17803,"event":"devicemotion"},{"x":-2.2,"y":1.9000000000000001,"z":-0.30000000000000004,"interval":16,"t":17820,"event":"devicemotion"},{"x":3.1,"y":-2.6,"z":1.5,"interval":16,"t":17836,"event":"devicemotion"},{"x":5.7,"y":-4.1000000000000005,"z":1,"interval":16,"t":17853,"event":"devicemotion"},{"x":5.7,"y":-4.1000000000000005,"z":1,"interval":16,"t":17869,"event":"devicemotion"},{"x":4.1000000000000005,"y":-2.1,"z":0,"interval":16,"t":17886,"event":"devicemotion"},{"x":-0.8,"y":2.1,"z":-0.4,"interval":16,"t":17902,"event":"devicemotion"},{"x":-3.9000000000000004,"y":4.800000000000001,"z":-0.1,"interval":16,"t":17919,"event":"devicemotion"},{"x":-3.3000000000000003,"y":4.2,"z":-0.9,"interval":16,"t":17936,"event":"devicemotion"},{"x":0.2,"y":0.30000000000000004,"z":-0.4,"interval":16,"t":17952,"event":"devicemotion"},{"x":0.2,"y":0.30000000000000004,"z":-0.4,"interval":16,"t":17969,"event":"devicemotion"},{"x":4.4,"y":-4.1000000000000005,"z":1.7000000000000002,"interval":16,"t":17986,"event":"devicemotion"},{"x":6.2,"y":-5.7,"z":1.7000000000000002,"interval":16,"t":18002,"event":"devicemotion"},{"x":2.7,"y":-3.2,"z":-1.1,"interval":16,"t":18019,"event":"devicemotion"},{"x":-2,"y":1.5,"z":-1.6,"interval":16,"t":18036,"event":"devicemotion"},{"x":-5.300000000000001,"y":4.9,"z":-1.5,"interval":16,"t":18052,"event":"devicemotion"},{"x":-5.300000000000001,"y":4.9,"z":-1.5,"interval":16,"t":18069,"event":"devicemotion"},{"x":-5.800000000000001,"y":5,"z":-1.2000000000000002,"interval":16,"t":18086,"event":"devicemotion"},{"x":-2.3000000000000003,"y":1.3,"z":-0.5,"interval":16,"t":18102,"event":"devicemotion"},{"x":3.1,"y":-4.2,"z":1.7000000000000002,"interval":16,"t":18121,"event":"devicemotion"},{"x":6.300000000000001,"y":-6.9,"z":2.4000000000000004,"interval":16,"t":18136,"event":"devicemotion"},{"x":6.300000000000001,"y":-6.4,"z":0.1,"interval":16,"t":18152,"event":"devicemotion"},{"x":6.300000000000001,"y":-6.4,"z":0.1,"interval":16,"t":18171,"event":"devicemotion"},{"x":1.5,"y":-1.7000000000000002,"z":-0.7000000000000001,"interval":16,"t":18187,"event":"devicemotion"},{"x":-4.9,"y":4.7,"z":-1,"interval":16,"t":18203,"event":"devicemotion"},{"x":-7.2,"y":8.5,"z":-1.8,"interval":16,"t":18219,"event":"devicemotion"},{"x":-7.300000000000001,"y":8.4,"z":-2.3000000000000003,"interval":16,"t":18236,"event":"devicemotion"},{"x":-3,"y":3.1,"z":-1.6,"interval":16,"t":18252,"event":"devicemotion"},{"x":-3,"y":3.1,"z":-1.6,"interval":16,"t":18271,"event":"devicemotion"},{"x":3.5,"y":-4.5,"z":1.7000000000000002,"interval":16,"t":18286,"event":"devicemotion"},{"x":9.200000000000001,"y":-10.200000000000001,"z":3.8000000000000003,"interval":16,"t":18303,"event":"devicemotion"},{"x":10.8,"y":-10.700000000000001,"z":1.8,"interval":16,"t":18319,"event":"devicemotion"},{"x":5.6000000000000005,"y":-6,"z":0.6000000000000001,"interval":16,"t":18337,"event":"devicemotion"},{"x":5.6000000000000005,"y":-6,"z":0.6000000000000001,"interval":16,"t":18352,"event":"devicemotion"},{"x":-1.7000000000000002,"y":1.6,"z":0.6000000000000001,"interval":16,"t":18369,"event":"devicemotion"},{"x":-9.1,"y":8.8,"z":-0.30000000000000004,"interval":16,"t":18386,"event":"devicemotion"},{"x":-12.3,"y":12.3,"z":-0.6000000000000001,"interval":16,"t":18403,"event":"devicemotion"},{"x":-10.3,"y":10.5,"z":0.4,"interval":16,"t":18419,"event":"devicemotion"},{"x":-5.300000000000001,"y":4,"z":0.2,"interval":16,"t":18437,"event":"devicemotion"},{"x":-5.300000000000001,"y":4,"z":0.2,"interval":16,"t":18453,"event":"devicemotion"},{"x":2.6,"y":-4.800000000000001,"z":1.7000000000000002,"interval":16,"t":18474,"event":"devicemotion"},{"x":13.700000000000001,"y":-12.700000000000001,"z":-0.1,"interval":16,"t":18486,"event":"devicemotion"},{"x":9.5,"y":-8,"z":-0.7000000000000001,"interval":16,"t":18503,"event":"devicemotion"},{"x":1.6,"y":-0.30000000000000004,"z":-0.6000000000000001,"interval":16,"t":18519,"event":"devicemotion"},{"x":1.6,"y":-0.30000000000000004,"z":-0.6000000000000001,"interval":16,"t":18536,"event":"devicemotion"},{"x":-7,"y":7.1000000000000005,"z":-1.3,"interval":16,"t":18556,"event":"devicemotion"},{"x":-10.700000000000001,"y":10.9,"z":-1.2000000000000002,"interval":16,"t":18570,"event":"devicemotion"},{"x":-8.700000000000001,"y":9.3,"z":0.2,"interval":16,"t":18585,"event":"devicemotion"},{"x":-3.5,"y":2.7,"z":2.1,"interval":16,"t":18602,"event":"devicemotion"},{"x":2.7,"y":-5.2,"z":3.2,"interval":16,"t":18618,"event":"devicemotion"},{"x":9,"y":-9.9,"z":3.2,"interval":16,"t":18635,"event":"devicemotion"},{"x":9,"y":-9.9,"z":3.2,"interval":16,"t":18652,"event":"devicemotion"},{"x":10.600000000000001,"y":-8.8,"z":-1.3,"interval":16,"t":18669,"event":"devicemotion"},{"x":4.4,"y":-2.9000000000000004,"z":-1.5,"interval":16,"t":18686,"event":"devicemotion"},{"x":-2.5,"y":3.7,"z":-0.7000000000000001,"interval":16,"t":18702,"event":"devicemotion"},{"x":-7.5,"y":7.9,"z":-0.6000000000000001,"interval":16,"t":18719,"event":"devicemotion"},{"x":-7.9,"y":7.7,"z":-0.2,"interval":16,"t":18735,"event":"devicemotion"},{"x":-7.9,"y":7.7,"z":-0.2,"interval":16,"t":18752,"event":"devicemotion"},{"x":-3.1,"y":2.6,"z":1.5,"interval":16,"t":18769,"event":"devicemotion"},{"x":1.5,"y":-3.4000000000000004,"z":3.6,"interval":16,"t":18785,"event":"devicemotion"},{"x":5.2,"y":-6.6000000000000005,"z":3.6,"interval":16,"t":18802,"event":"devicemotion"},{"x":5.5,"y":-5.4,"z":-0.1,"interval":16,"t":18820,"event":"devicemotion"},{"x":5.5,"y":-5.4,"z":-0.1,"interval":16,"t":18837,"event":"devicemotion"},{"x":1.9000000000000001,"y":-0.7000000000000001,"z":-0.9,"interval":16,"t":18853,"event":"devicemotion"},{"x":-2.6,"y":4,"z":-1.1,"interval":16,"t":18869,"event":"devicemotion"},{"x":-4.800000000000001,"y":5.7,"z":-1.4000000000000001,"interval":16,"t":18885,"event":"devicemotion"},{"x":-2.7,"y":2.8000000000000003,"z":-0.6000000000000001,"interval":16,"t":18902,"event":"devicemotion"},{"x":-2.7,"y":2.8000000000000003,"z":-0.6000000000000001,"interval":16,"t":18920,"event":"devicemotion"},{"x":0.8,"y":-2,"z":2,"interval":16,"t":18936,"event":"devicemotion"},{"x":4.4,"y":-5.2,"z":2.6,"interval":16,"t":18953,"event":"devicemotion"},{"x":4.3,"y":-4.1000000000000005,"z":-0.30000000000000004,"interval":16,"t":18969,"event":"devicemotion"},{"x":-0.1,"y":1.1,"z":-1.6,"interval":16,"t":18985,"event":"devicemotion"},{"x":-4.7,"y":6.1000000000000005,"z":-1.7000000000000002,"interval":16,"t":19002,"event":"devicemotion"},{"x":-6.2,"y":7.7,"z":-2.5,"interval":16,"t":19019,"event":"devicemotion"},{"x":-6.2,"y":7.7,"z":-2.5,"interval":16,"t":19036,"event":"devicemotion"},{"x":-3.4000000000000004,"y":4.2,"z":-2.3000000000000003,"interval":16,"t":19052,"event":"devicemotion"},{"x":-3.4000000000000004,"y":4.2,"z":-2.3000000000000003,"interval":16,"t":19070,"event":"devicemotion"},{"x":5.6000000000000005,"y":-7.9,"z":3,"interval":16,"t":19085,"event":"devicemotion"},{"x":6.5,"y":-8.5,"z":3.9000000000000004,"interval":16,"t":19102,"event":"devicemotion"},{"x":2.5,"y":-4.1000000000000005,"z":2.8000000000000003,"interval":16,"t":19118,"event":"devicemotion"},{"x":2.5,"y":-4.1000000000000005,"z":2.8000000000000003,"interval":16,"t":19136,"event":"devicemotion"},{"x":-3,"y":2.3000000000000003,"z":1.7000000000000002,"interval":16,"t":19152,"event":"devicemotion"},{"x":-6.800000000000001,"y":7.7,"z":-0.2,"interval":16,"t":19169,"event":"devicemotion"},{"x":-8.4,"y":9.600000000000001,"z":-1.9000000000000001,"interval":16,"t":19185,"event":"devicemotion"},{"x":-6.4,"y":6.5,"z":-2,"interval":16,"t":19202,"event":"devicemotion"},{"x":-6.4,"y":6.5,"z":-2,"interval":16,"t":19219,"event":"devicemotion"},{"x":0.6000000000000001,"y":-0.8,"z":-1,"interval":16,"t":19236,"event":"devicemotion"},{"x":6.800000000000001,"y":-7.9,"z":0.9,"interval":16,"t":19252,"event":"devicemotion"},{"x":9.9,"y":-11,"z":1,"interval":16,"t":19269,"event":"devicemotion"},{"x":9.8,"y":-9.3,"z":0.4,"interval":16,"t":19286,"event":"devicemotion"},{"x":4.2,"y":-3.1,"z":-0.7000000000000001,"interval":16,"t":19303,"event":"devicemotion"},{"x":4.2,"y":-3.1,"z":-0.7000000000000001,"interval":16,"t":19319,"event":"devicemotion"},{"x":-3.6,"y":4.6000000000000005,"z":-1.5,"interval":16,"t":19335,"event":"devicemotion"},{"x":-8.4,"y":9.700000000000001,"z":-0.9,"interval":16,"t":19352,"event":"devicemotion"},{"x":-10.100000000000001,"y":10.4,"z":0.4,"interval":16,"t":19369,"event":"devicemotion"},{"x":-6.7,"y":5.6000000000000005,"z":1.5,"interval":16,"t":19386,"event":"devicemotion"},{"x":0,"y":-2.3000000000000003,"z":3.2,"interval":16,"t":19402,"event":"devicemotion"},{"x":0,"y":-2.3000000000000003,"z":3.2,"interval":16,"t":19419,"event":"devicemotion"},{"x":6.5,"y":-8.4,"z":3.6,"interval":16,"t":19436,"event":"devicemotion"},{"x":10.4,"y":-9.700000000000001,"z":0,"interval":16,"t":19452,"event":"devicemotion"},{"x":-0.7000000000000001,"y":1.6,"z":-1.7000000000000002,"interval":16,"t":19469,"event":"devicemotion"},{"x":-5.800000000000001,"y":6.9,"z":-1.9000000000000001,"interval":16,"t":19486,"event":"devicemotion"},{"x"