[{"rt":3374,"stimulus":"<p style=\"font-size:60px;\">Click below to begin.</p>","response":0,"trial_type":"html-button-response","trial_index":0,"time_elapsed":3379,"internal_node_id":"0.0-0.0"},{"rt":14733,"stimulus":"../standaloneApp/binary_ternary.mp3","response":0,"trial_type":"audio-button-response","trial_index":1,"time_elapsed":18411,"internal_node_id":"0.0-1.0","device_motion_data":[{"x":0,"y":0,"z":0,"interval":16,"t":107,"event":"devicemotion"},{"x":0.1,"y":0,"z":0.1,"interval":16,"t":124,"event":"devicemotion"},{"x":0.1,"y":0,"z":0.1,"interval":16,"t":141,"event":"devicemotion"},{"x":0,"y":0,"z":0.1,"interval":16,"t":157,"event":"devicemotion"},{"x":0,"y":0,"z":0.1,"interval":16,"t":174,"event":"devicemotion"},{"x":0.1,"y":0,"z":-0.2,"interval":16,"t":190,"event":"devicemotion"},{"x":0.30000000000000004,"y":-0.1,"z":-0.2,"interval":16,"t":207,"event":"devicemotion"},{"x":0.1,"y":-0.1,"z":-0.1,"interval":16,"t":224,"event":"devicemotion"},{"x":-0.1,"y":0.1,"z":0,"interval":16,"t":241,"event":"devicemotion"},{"x":-0.1,"y":0.1,"z":0,"interval":16,"t":258,"event":"devicemotion"},{"x":-0.1,"y":0.2,"z":0,"interval":16,"t":274,"event":"devicemotion"},{"x":-0.1,"y":0.2,"z":-0.1,"interval":16,"t":291,"event":"devicemotion"},{"x":0,"y":0.2,"z":-0.2,"interval":16,"t":307,"event":"devicemotion"},{"x":0,"y":0.30000000000000004,"z":-0.2,"interval":16,"t":324,"event":"devicemotion"},{"x":0,"y":0.5,"z":-0.2,"interval":16,"t":340,"event":"devicemotion"},{"x":0,"y":0.5,"z":-0.2,"interval":16,"t":357,"event":"devicemotion"},{"x":-0.2,"y":0.4,"z":0.2,"interval":16,"t":374,"event":"devicemotion"},{"x":-0.2,"y":0.30000000000000004,"z":0.1,"interval":16,"t":391,"event":"devicemotion"},{"x":-0.4,"y":0.6000000000000001,"z":-0.30000000000000004,"interval":16,"t":408,"event":"devicemotion"},{"x":-0.1,"y":0.7000000000000001,"z":-0.8,"interval":16,"t":424,"event":"devicemotion"},{"x":0.4,"y":0.8,"z":-0.6000000000000001,"interval":16,"t":441,"event":"devicemotion"},{"x":0.4,"y":0.8,"z":-0.6000000000000001,"interval":16,"t":458,"event":"devicemotion"},{"x":0.30000000000000004,"y":1.2000000000000002,"z":0.30000000000000004,"interval":16,"t":474,"event":"devicemotion"},{"x":-0.9,"y":1.6,"z":1.6,"interval":16,"t":491,"event":"devicemotion"},{"x":-2.6,"y":2.1,"z":2.3000000000000003,"interval":16,"t":507,"event":"devicemotion"},{"x":-2.5,"y":1.7000000000000002,"z":1.7000000000000002,"interval":16,"t":524,"event":"devicemotion"},{"x":-1.7000000000000002,"y":1.4000000000000001,"z":0.8,"interval":16,"t":541,"event":"devicemotion"},{"x":-1.7000000000000002,"y":1.4000000000000001,"z":0.8,"interval":16,"t":558,"event":"devicemotion"},{"x":-1.1,"y":0.7000000000000001,"z":-0.2,"interval":16,"t":574,"event":"devicemotion"},{"x":-0.30000000000000004,"y":-0.2,"z":-1.3,"interval":16,"t":591,"event":"devicemotion"},{"x":0.7000000000000001,"y":-1,"z":-2.6,"interval":16,"t":607,"event":"devicemotion"},{"x":1.8,"y":-1.3,"z":-2.7,"interval":16,"t":624,"event":"devicemotion"},{"x":1.8,"y":-1.8,"z":-1.5,"interval":16,"t":640,"event":"devicemotion"},{"x":1.8,"y":-1.8,"z":-1.5,"interval":16,"t":657,"event":"devicemotion"},{"x":1.4000000000000001,"y":-0.8,"z":0.30000000000000004,"interval":16,"t":674,"event":"devicemotion"},{"x":0.5,"y":0.2,"z":1.1,"interval":16,"t":691,"event":"devicemotion"},{"x":-1.3,"y":1.9000000000000001,"z":2.4000000000000004,"interval":16,"t":708,"event":"devicemotion"},{"x":-3.5,"y":3.8000000000000003,"z":3.9000000000000004,"interval":16,"t":724,"event":"devicemotion"},{"x":-3.5,"y":3.8000000000000003,"z":3.9000000000000004,"interval":16,"t":741,"event":"devicemotion"},{"x":-3.9000000000000004,"y":4.1000000000000005,"z":4.800000000000001,"interval":16,"t":757,"event":"devicemotion"},{"x":-4.6000000000000005,"y":2.8000000000000003,"z":5.5,"interval":16,"t":774,"event":"devicemotion"},{"x":-2.5,"y":-1.5,"z":5,"interval":16,"t":790,"event":"devicemotion"},{"x":-0.6000000000000001,"y":-3,"z":2,"interval":16,"t":807,"event":"devicemotion"},{"x":-0.30000000000000004,"y":-3,"z":-2.2,"interval":16,"t":824,"event":"devicemotion"},{"x":-0.30000000000000004,"y":-3,"z":-2.2,"interval":16,"t":841,"event":"devicemotion"},{"x":-0.9,"y":-2.9000000000000004,"z":-5,"interval":16,"t":857,"event":"devicemotion"},{"x":-1.6,"y":-2.6,"z":-6,"interval":16,"t":874,"event":"devicemotion"},{"x":5.2,"y":-1.8,"z":-6.800000000000001,"interval":16,"t":891,"event":"devicemotion"},{"x":6.5,"y":-3.6,"z":-3.5,"interval":16,"t":908,"event":"devicemotion"},{"x":5.2,"y":-3.4000000000000004,"z":-2.9000000000000004,"interval":16,"t":924,"event":"devicemotion"},{"x":5.2,"y":-3.4000000000000004,"z":-2.9000000000000004,"interval":16,"t":941,"event":"devicemotion"},{"x":4.7,"y":-2.7,"z":-4.7,"interval":16,"t":957,"event":"devicemotion"},{"x":3.9000000000000004,"y":-2.2,"z":-5,"interval":16,"t":974,"event":"devicemotion"},{"x":4.2,"y":-2.2,"z":-4.7,"interval":16,"t":991,"event":"devicemotion"},{"x":5.300000000000001,"y":-2.6,"z":-4.4,"interval":16,"t":1008,"event":"devicemotion"},{"x":5.300000000000001,"y":-2.6,"z":-4.4,"interval":16,"t":1026,"event":"devicemotion"},{"x":5.800000000000001,"y":-2.8000000000000003,"z":-4,"interval":16,"t":1041,"event":"devicemotion"},{"x":6.1000000000000005,"y":-2.7,"z":-1.4000000000000001,"interval":16,"t":1058,"event":"devicemotion"},{"x":6.300000000000001,"y":-2.7,"z":-1.6,"interval":16,"t":1074,"event":"devicemotion"},{"x":6.5,"y":-2.5,"z":-3.8000000000000003,"interval":16,"t":1091,"event":"devicemotion"},{"x":5.300000000000001,"y":-1.5,"z":-4.2,"interval":16,"t":1108,"event":"devicemotion"},{"x":5.300000000000001,"y":-1.5,"z":-4.2,"interval":16,"t":1124,"event":"devicemotion"},{"x":4.4,"y":-0.6000000000000001,"z":-3.5,"interval":16,"t":1141,"event":"devicemotion"},{"x":3,"y":0.30000000000000004,"z":-2.9000000000000004,"interval":16,"t":1158,"event":"devicemotion"},{"x":0,"y":2.2,"z":-1.3,"interval":16,"t":1174,"event":"devicemotion"},{"x":-3.3000000000000003,"y":4.7,"z":0.5,"interval":16,"t":1191,"event":"devicemotion"},{"x":-3.3000000000000003,"y":4.7,"z":0.5,"interval":16,"t":1209,"event":"devicemotion"},{"x":-6.2,"y":6.800000000000001,"z":2.1,"interval":16,"t":1224,"event":"devicemotion"},{"x":-7.5,"y":7.7,"z":3.7,"interval":16,"t":1241,"event":"devicemotion"},{"x":-7.4,"y":7.300000000000001,"z":4.5,"interval":16,"t":1257,"event":"devicemotion"},{"x":-7.2,"y":6.300000000000001,"z":4.2,"interval":16,"t":1275,"event":"devicemotion"},{"x":-7,"y":5.2,"z":4.2,"interval":16,"t":1291,"event":"devicemotion"},{"x":-6.4,"y":3.8000000000000003,"z":3.6,"interval":16,"t":1307,"event":"devicemotion"},{"x":-6.4,"y":3.8000000000000003,"z":3.6,"interval":16,"t":1324,"event":"devicemotion"},{"x":-5.1000000000000005,"y":2.2,"z":2.8000000000000003,"interval":16,"t":1341,"event":"devicemotion"},{"x":-3.6,"y":0.6000000000000001,"z":1.8,"interval":16,"t":1357,"event":"devicemotion"},{"x":-2.2,"y":-0.6000000000000001,"z":0.6000000000000001,"interval":16,"t":1375,"event":"devicemotion"},{"x":-0.5,"y":-1.6,"z":-0.6000000000000001,"interval":16,"t":1391,"event":"devicemotion"},{"x":-0.5,"y":-1.6,"z":-0.6000000000000001,"interval":16,"t":1408,"event":"devicemotion"},{"x":1.4000000000000001,"y":-2.4000000000000004,"z":-2,"interval":16,"t":1424,"event":"devicemotion"},{"x":3.2,"y":-2.9000000000000004,"z":-3.4000000000000004,"interval":16,"t":1441,"event":"devicemotion"},{"x":4.6000000000000005,"y":-3.2,"z":-4.6000000000000005,"interval":16,"t":1459,"event":"devicemotion"},{"x":6,"y":-3.5,"z":-5.6000000000000005,"interval":16,"t":1474,"event":"devicemotion"},{"x":7.2,"y":-3.5,"z":-5.800000000000001,"interval":16,"t":1491,"event":"devicemotion"},{"x":7.2,"y":-3.5,"z":-5.800000000000001,"interval":16,"t":1508,"event":"devicemotion"},{"x":7.7,"y":-3.5,"z":-5.5,"interval":16,"t":1524,"event":"devicemotion"},{"x":7.7,"y":-3.4000000000000004,"z":-5,"interval":16,"t":1541,"event":"devicemotion"},{"x":7.7,"y":-3.6,"z":-4.5,"interval":16,"t":1558,"event":"devicemotion"},{"x":8.200000000000001,"y":-3.5,"z":-4,"interval":16,"t":1574,"event":"devicemotion"},{"x":8.200000000000001,"y":-3.5,"z":-4,"interval":16,"t":1591,"event":"devicemotion"},{"x":7.1000000000000005,"y":-2.7,"z":-2.9000000000000004,"interval":16,"t":1611,"event":"devicemotion"},{"x":5.6000000000000005,"y":-2.1,"z":-2.8000000000000003,"interval":16,"t":1624,"event":"devicemotion"},{"x":4.6000000000000005,"y":-1.6,"z":-2.6,"interval":16,"t":1641,"event":"devicemotion"},{"x":3.3000000000000003,"y":-1.3,"z":-2,"interval":16,"t":1658,"event":"devicemotion"},{"x":2,"y":-0.6000000000000001,"z":-1.2000000000000002,"interval":16,"t":1674,"event":"devicemotion"},{"x":-0.5,"y":0.4,"z":0,"interval":16,"t":1691,"event":"devicemotion"},{"x":-0.5,"y":0.4,"z":0,"interval":16,"t":1708,"event":"devicemotion"},{"x":-3.6,"y":2.5,"z":1.6,"interval":16,"t":1724,"event":"devicemotion"},{"x":-6.6000000000000005,"y":5.1000000000000005,"z":3,"interval":16,"t":1741,"event":"devicemotion"},{"x":-9.200000000000001,"y":7.2,"z":4.5,"interval":16,"t":1758,"event":"devicemotion"},{"x":-10.700000000000001,"y":8.6,"z":6.1000000000000005,"interval":16,"t":1774,"event":"devicemotion"},{"x":-11.700000000000001,"y":8.8,"z":7.9,"interval":16,"t":1793,"event":"devicemotion"},{"x":-11.700000000000001,"y":8.8,"z":7.9,"interval":16,"t":1808,"event":"devicemotion"},{"x":-12.4,"y":8.200000000000001,"z":9.700000000000001,"interval":16,"t":1824,"event":"devicemotion"},{"x":-11.4,"y":5.9,"z":9.700000000000001,"interval":16,"t":1841,"event":"devicemotion"},{"x":-9.1,"y":2.9000000000000004,"z":8.200000000000001,"interval":16,"t":1857,"event":"devicemotion"},{"x":-6.4,"y":0,"z":5.300000000000001,"interval":16,"t":1874,"event":"devicemotion"},{"x":-6.4,"y":0,"z":5.300000000000001,"interval":16,"t":1891,"event":"devicemotion"},{"x":-3.4000000000000004,"y":-2.4000000000000004,"z":1.7000000000000002,"interval":16,"t":1907,"event":"devicemotion"},{"x":-0.30000000000000004,"y":-4.2,"z":-1.6,"interval":16,"t":1924,"event":"devicemotion"},{"x":2.5,"y":-5.2,"z":-4.2,"interval":16,"t":1941,"event":"devicemotion"},{"x":4.5,"y":-5.6000000000000005,"z":-6,"interval":16,"t":1957,"event":"devicemotion"},{"x":6.6000000000000005,"y":-5.5,"z":-6.7,"interval":16,"t":1974,"event":"devicemotion"},{"x":6.6000000000000005,"y":-5.5,"z":-6.7,"interval":16,"t":1991,"event":"devicemotion"},{"x":7.7,"y":-5.1000000000000005,"z":-7.1000000000000005,"interval":16,"t":2008,"event":"devicemotion"},{"x":8.6,"y":-4.6000000000000005,"z":-6.9,"interval":16,"t":2025,"event":"devicemotion"},{"x":8.9,"y":-4,"z":-6.2,"interval":16,"t":2041,"event":"devicemotion"},{"x":9.3,"y":-3.5,"z":-5.9,"interval":16,"t":2057,"event":"devicemotion"},{"x":9,"y":-3,"z":-5.5,"interval":16,"t":2074,"event":"devicemotion"},{"x":9,"y":-3,"z":-5.5,"interval":16,"t":2091,"event":"devicemotion"},{"x":8,"y":-2.2,"z":-5.1000000000000005,"interval":16,"t":2108,"event":"devicemotion"},{"x":6.7,"y":-1.6,"z":-4.6000000000000005,"interval":16,"t":2124,"event":"devicemotion"},{"x":5.2,"y":-1.1,"z":-3.7,"interval":16,"t":2141,"event":"devicemotion"},{"x":3.7,"y":-0.5,"z":-3.1,"interval":16,"t":2158,"event":"devicemotion"},{"x":1.8,"y":0.30000000000000004,"z":-2.5,"interval":16,"t":2174,"event":"devicemotion"},{"x":1.8,"y":0.30000000000000004,"z":-2.5,"interval":16,"t":2191,"event":"devicemotion"},{"x":-0.5,"y":1,"z":-1.7000000000000002,"interval":16,"t":2208,"event":"devicemotion"},{"x":-2.1,"y":1.9000000000000001,"z":-0.5,"interval":16,"t":2225,"event":"devicemotion"},{"x":-3.5,"y":3,"z":1.7000000000000002,"interval":16,"t":2241,"event":"devicemotion"},{"x":-4.4,"y":3.8000000000000003,"z":4.5,"interval":16,"t":2259,"event":"devicemotion"},{"x":-5.300000000000001,"y":4.5,"z":6.800000000000001,"interval":16,"t":2274,"event":"devicemotion"},{"x":-5.300000000000001,"y":4.5,"z":6.800000000000001,"interval":16,"t":2291,"event":"devicemotion"},{"x":-5.4,"y":4.4,"z":8.9,"interval":16,"t":2308,"event":"devicemotion"},{"x":-4.800000000000001,"y":4,"z":10.100000000000001,"interval":16,"t":2325,"event":"devicemotion"},{"x":-5.4,"y":3.1,"z":10.600000000000001,"interval":16,"t":2341,"event":"devicemotion"},{"x":-5.5,"y":1.8,"z":10.4,"interval":16,"t":2358,"event":"devicemotion"},{"x":-5.5,"y":1.8,"z":10.4,"interval":16,"t":2374,"event":"devicemotion"},{"x":-5.2,"y":0.6000000000000001,"z":9,"interval":16,"t":2391,"event":"devicemotion"},{"x":-4.3,"y":-0.4,"z":6.800000000000001,"interval":16,"t":2408,"event":"devicemotion"},{"x":-2.2,"y":-1.9000000000000001,"z":1.8,"interval":16,"t":2424,"event":"devicemotion"},{"x":0.4,"y":-2.5,"z":-0.2,"interval":16,"t":2441,"event":"devicemotion"},{"x":2.2,"y":-3,"z":-2.5,"interval":16,"t":2458,"event":"devicemotion"},{"x":2.2,"y":-3,"z":-2.5,"interval":16,"t":2474,"event":"devicemotion"},{"x":3.8000000000000003,"y":-3.2,"z":-4.1000000000000005,"interval":16,"t":2491,"event":"devicemotion"},{"x":5.2,"y":-3.1,"z":-5.300000000000001,"interval":16,"t":2509,"event":"devicemotion"},{"x":5.9,"y":-3,"z":-6.300000000000001,"interval":16,"t":2524,"event":"devicemotion"},{"x":6.7,"y":-2.9000000000000004,"z":-6.800000000000001,"interval":16,"t":2541,"event":"devicemotion"},{"x":6.800000000000001,"y":-2.6,"z":-6.7,"interval":16,"t":2557,"event":"devicemotion"},{"x":6.800000000000001,"y":-2.6,"z":-6.7,"interval":16,"t":2574,"event":"devicemotion"},{"x":6.7,"y":-2.2,"z":-6.300000000000001,"interval":16,"t":2591,"event":"devicemotion"},{"x":5.800000000000001,"y":-1.6,"z":-5.4,"interval":16,"t":2608,"event":"devicemotion"},{"x":3.7,"y":-1.1,"z":-4.1000000000000005,"interval":16,"t":2624,"event":"devicemotion"},{"x":2.4000000000000004,"y":-0.5,"z":-3,"interval":16,"t":2641,"event":"devicemotion"},{"x":1.1,"y":0.6000000000000001,"z":-2.2,"interval":16,"t":2658,"event":"devicemotion"},{"x":1.1,"y":0.6000000000000001,"z":-2.2,"interval":16,"t":2674,"event":"devicemotion"},{"x":-1.3,"y":2.2,"z":-1.5,"interval":16,"t":2691,"event":"devicemotion"},{"x":-4.6000000000000005,"y":4.2,"z":-0.5,"interval":16,"t":2708,"event":"devicemotion"},{"x":-8.1,"y":6.2,"z":1.5,"interval":16,"t":2725,"event":"devicemotion"},{"x":-8.9,"y":7.2,"z":3.8000000000000003,"interval":16,"t":2741,"event":"devicemotion"},{"x":-7.9,"y":6.7,"z":4.6000000000000005,"interval":16,"t":2757,"event":"devicemotion"},{"x":-7.9,"y":6.7,"z":4.6000000000000005,"interval":16,"t":2774,"event":"devicemotion"},{"x":-7.2,"y":5.6000000000000005,"z":6.1000000000000005,"interval":16,"t":2791,"event":"devicemotion"},{"x":-6.9,"y":3.9000000000000004,"z":7.1000000000000005,"interval":16,"t":2808,"event":"devicemotion"},{"x":-6.300000000000001,"y":2.1,"z":8.200000000000001,"interval":16,"t":2824,"event":"devicemotion"},{"x":-5.800000000000001,"y":0.8,"z":8.700000000000001,"interval":16,"t":2841,"event":"devicemotion"},{"x":-5.800000000000001,"y":0.8,"z":8.700000000000001,"interval":16,"t":2858,"event":"devicemotion"},{"x":-5.300000000000001,"y":-0.1,"z":8.3,"interval":16,"t":2875,"event":"devicemotion"},{"x":-4.7,"y":-0.7000000000000001,"z":7.1000000000000005,"interval":16,"t":2891,"event":"devicemotion"},{"x":-3.6,"y":-1.1,"z":5.2,"interval":16,"t":2907,"event":"devicemotion"},{"x":-2.8000000000000003,"y":-1.2000000000000002,"z":3,"interval":16,"t":2925,"event":"devicemotion"},{"x":-1.9000000000000001,"y":-1.3,"z":1.3,"interval":16,"t":2941,"event":"devicemotion"},{"x":-1.9000000000000001,"y":-1.3,"z":1.3,"interval":16,"t":2957,"event":"devicemotion"},{"x":-0.8,"y":-1.6,"z":-0.1,"interval":16,"t":2974,"event":"devicemotion"},{"x":0.9,"y":-1.9000000000000001,"z":-1,"interval":16,"t":2991,"event":"devicemotion"},{"x":1.9000000000000001,"y":-2.1,"z":-1.6,"interval":16,"t":3008,"event":"devicemotion"},{"x":2.7,"y":-2.3000000000000003,"z":-2.3000000000000003,"interval":16,"t":3024,"event":"devicemotion"},{"x":3.9000000000000004,"y":-2.7,"z":-2.9000000000000004,"interval":16,"t":3041,"event":"devicemotion"},{"x":3.9000000000000004,"y":-2.7,"z":-2.9000000000000004,"interval":16,"t":3058,"event":"devicemotion"},{"x":4.9,"y":-2.9000000000000004,"z":-4,"interval":16,"t":3074,"event":"devicemotion"},{"x":6.2,"y":-3.4000000000000004,"z":-6,"interval":16,"t":3091,"event":"devicemotion"},{"x":7.800000000000001,"y":-4,"z":-7.6000000000000005,"interval":16,"t":3108,"event":"devicemotion"},{"x":9.8,"y":-4.6000000000000005,"z":-8.3,"interval":16,"t":3124,"event":"devicemotion"},{"x":9.8,"y":-4.6000000000000005,"z":-8.3,"interval":16,"t":3141,"event":"devicemotion"},{"x":10.5,"y":-4.800000000000001,"z":-8.3,"interval":16,"t":3158,"event":"devicemotion"},{"x":10.5,"y":-4.6000000000000005,"z":-7.800000000000001,"interval":16,"t":3174,"event":"devicemotion"},{"x":10,"y":-4.1000000000000005,"z":-6.5,"interval":16,"t":3191,"event":"devicemotion"},{"x":8.5,"y":-2.9000000000000004,"z":-4.800000000000001,"interval":16,"t":3208,"event":"devicemotion"},{"x":6,"y":0.1,"z":-2.9000000000000004,"interval":16,"t":3224,"event":"devicemotion"},{"x":6,"y":0.1,"z":-2.9000000000000004,"interval":16,"t":3241,"event":"devicemotion"},{"x":-8.5,"y":7,"z":2.2,"interval":16,"t":3257,"event":"devicemotion"},{"x":-12.600000000000001,"y":9.600000000000001,"z":3.3000000000000003,"interval":16,"t":3274,"event":"devicemotion"},{"x":-9.4,"y":8.6,"z":5.1000000000000005,"interval":16,"t":3292,"event":"devicemotion"},{"x":-4.7,"y":5.7,"z":9.4,"interval":16,"t":3308,"event":"devicemotion"},{"x":-2.5,"y":3.4000000000000004,"z":10,"interval":16,"t":3324,"event":"devicemotion"},{"x":-3,"y":1.5,"z":7.4,"interval":16,"t":3341,"event":"devicemotion"},{"x":-3,"y":1.5,"z":7.4,"interval":16,"t":3358,"event":"devicemotion"},{"x":-2.8000000000000003,"y":-0.1,"z":2.9000000000000004,"interval":16,"t":3374,"event":"devicemotion"},{"x":-1.4000000000000001,"y":-1.9000000000000001,"z":-0.8,"interval":16,"t":3392,"event":"devicemotion"},{"x":0.5,"y":-3.2,"z":-2.7,"interval":16,"t":3408,"event":"devicemotion"},{"x":3.1,"y":-4.1000000000000005,"z":-3.8000000000000003,"interval":16,"t":3424,"event":"devicemotion"},{"x":3.1,"y":-4.1000000000000005,"z":-3.8000000000000003,"interval":16,"t":3441,"event":"devicemotion"},{"x":4.4,"y":-4.3,"z":-4.3,"interval":16,"t":3458,"event":"devicemotion"},{"x":5.300000000000001,"y":-4.3,"z":-5,"interval":16,"t":3474,"event":"devicemotion"},{"x":5.800000000000001,"y":-4.1000000000000005,"z":-4.9,"interval":16,"t":3491,"event":"devicemotion"},{"x":6.2,"y":-3.8000000000000003,"z":-4.6000000000000005,"interval":16,"t":3508,"event":"devicemotion"},{"x":7,"y":-3.7,"z":-4.5,"interval":16,"t":3525,"event":"devicemotion"},{"x":7,"y":-3.7,"z":-4.5,"interval":16,"t":3542,"event":"devicemotion"},{"x":7.300000000000001,"y":-3.6,"z":-4,"interval":16,"t":3557,"event":"devicemotion"},{"x":7.6000000000000005,"y":-3.3000000000000003,"z":-3.9000000000000004,"interval":16,"t":3574,"event":"devicemotion"},{"x":7.2,"y":-3.1,"z":-3.9000000000000004,"interval":16,"t":3591,"event":"devicemotion"},{"x":6.300000000000001,"y":-2.6,"z":-4,"interval":16,"t":3608,"event":"devicemotion"},{"x":5.4,"y":-1.9000000000000001,"z":-4.1000000000000005,"interval":16,"t":3624,"event":"devicemotion"},{"x":5.4,"y":-1.9000000000000001,"z":-4.1000000000000005,"interval":16,"t":3641,"event":"devicemotion"},{"x":4.2,"y":-1,"z":-3.7,"interval":16,"t":3658,"event":"devicemotion"},{"x":3.2,"y":0.2,"z":-3.1,"interval":16,"t":3674,"event":"devicemotion"},{"x":1.3,"y":1.7000000000000002,"z":-2.5,"interval":16,"t":3691,"event":"devicemotion"},{"x":-2.1,"y":3.8000000000000003,"z":-1.9000000000000001,"interval":16,"t":3707,"event":"devicemotion"},{"x":-5.2,"y":5.6000000000000005,"z":-0.7000000000000001,"interval":16,"t":3724,"event":"devicemotion"},{"x":-5.2,"y":5.6000000000000005,"z":-0.7000000000000001,"interval":16,"t":3741,"event":"devicemotion"},{"x":-6.300000000000001,"y":6.9,"z":0.9,"interval":16,"t":3758,"event":"devicemotion"},{"x":-5.7,"y":7,"z":2,"interval":16,"t":3774,"event":"devicemotion"},{"x":-4.6000000000000005,"y":5.7,"z":3.1,"interval":16,"t":3790,"event":"devicemotion"},{"x":-2.9000000000000004,"y":4.3,"z":3.3000000000000003,"interval":16,"t":3807,"event":"devicemotion"},{"x":-2.4000000000000004,"y":2.4000000000000004,"z":2.4000000000000004,"interval":16,"t":3824,"event":"devicemotion"},{"x":-2.4000000000000004,"y":2.4000000000000004,"z":2.4000000000000004,"interval":16,"t":3840,"event":"devicemotion"},{"x":-1.6,"y":0.4,"z":1.2000000000000002,"interval":16,"t":3858,"event":"devicemotion"},{"x":0.2,"y":-1.7000000000000002,"z":0,"interval":16,"t":3874,"event":"devicemotion"},{"x":2.3000000000000003,"y":-3.1,"z":-0.7000000000000001,"interval":16,"t":3891,"event":"devicemotion"},{"x":3.9000000000000004,"y":-3.6,"z":-1.1,"interval":16,"t":3908,"event":"devicemotion"},{"x":3.9000000000000004,"y":-3.6,"z":-1.1,"interval":16,"t":3924,"event":"devicemotion"},{"x":3.9000000000000004,"y":-3.4000000000000004,"z":-1,"interval":16,"t":3941,"event":"devicemotion"},{"x":2.6,"y":-2.8000000000000003,"z":-0.5,"interval":16,"t":3957,"event":"devicemotion"},{"x":1.9000000000000001,"y":-2.3000000000000003,"z":0.1,"interval":16,"t":3974,"event":"devicemotion"},{"x":2.3000000000000003,"y":-2.1,"z":0.30000000000000004,"interval":16,"t":3991,"event":"devicemotion"},{"x":3.1,"y":-2.1,"z":0.5,"interval":16,"t":4007,"event":"devicemotion"},{"x":3.1,"y":-2.1,"z":0.5,"interval":16,"t":4024,"event":"devicemotion"},{"x":3.5,"y":-2.4000000000000004,"z":0.7000000000000001,"interval":16,"t":4041,"event":"devicemotion"},{"x":3.8000000000000003,"y":-2.9000000000000004,"z":0.8,"interval":16,"t":4057,"event":"devicemotion"},{"x":3.9000000000000004,"y":-2.7,"z":0.4,"interval":16,"t":4074,"event":"devicemotion"},{"x":2.6,"y":-2,"z":-0.30000000000000004,"interval":16,"t":4091,"event":"devicemotion"},{"x":2.6,"y":-2,"z":-0.30000000000000004,"interval":16,"t":4108,"event":"devicemotion"},{"x":1.3,"y":-1.3,"z":-0.7000000000000001,"interval":16,"t":4125,"event":"devicemotion"},{"x":-0.30000000000000004,"y":0.2,"z":-0.7000000000000001,"interval":16,"t":4141,"event":"devicemotion"},{"x":-2.6,"y":2.1,"z":-0.30000000000000004,"interval":16,"t":4158,"event":"devicemotion"},{"x":-4.9,"y":4.2,"z":0.4,"interval":16,"t":4174,"event":"devicemotion"},{"x":-6.5,"y":6,"z":1.5,"interval":16,"t":4191,"event":"devicemotion"},{"x":-7.1000000000000005,"y":6.6000000000000005,"z":2.7,"interval":16,"t":4207,"event":"devicemotion"},{"x":-7.1000000000000005,"y":6.6000000000000005,"z":2.7,"interval":16,"t":4226,"event":"devicemotion"},{"x":-7.5,"y":7,"z":4.7,"interval":16,"t":4246,"event":"devicemotion"},{"x":-4.6000000000000005,"y":0.8,"z":4.4,"interval":16,"t":4340,"event":"devicemotion"},{"x":-4.6000000000000005,"y":0.8,"z":4.4,"interval":16,"t":4340,"event":"devicemotion"},{"x":-2.9000000000000004,"y":-0.6000000000000001,"z":2.8000000000000003,"interval":16,"t":4357,"event":"devicemotion"},{"x":-0.6000000000000001,"y":-1.7000000000000002,"z":1,"interval":16,"t":4374,"event":"devicemotion"},{"x":0.9,"y":-2.5,"z":-0.7000000000000001,"interval":16,"t":4390,"event":"devicemotion"},{"x":1.8,"y":-2.8000000000000003,"z":-2.6,"interval":16,"t":4407,"event":"devicemotion"},{"x":1.8,"y":-2.8000000000000003,"z":-2.6,"interval":16,"t":4424,"event":"devicemotion"},{"x":2.1,"y":-3.1,"z":-3.7,"interval":16,"t":4440,"event":"devicemotion"},{"x":2.8000000000000003,"y":-3.4000000000000004,"z":-3.9000000000000004,"interval":16,"t":4457,"event":"devicemotion"},{"x":4.3,"y":-3.7,"z":-4,"interval":16,"t":4474,"event":"devicemotion"},{"x":5.9,"y":-4.2,"z":-3.6,"interval":16,"t":4490,"event":"devicemotion"},{"x":5.9,"y":-4.2,"z":-3.6,"interval":16,"t":4507,"event":"devicemotion"},{"x":6.6000000000000005,"y":-4.4,"z":-3.1,"interval":16,"t":4524,"event":"devicemotion"},{"x":7.4,"y":-4.2,"z":-2.5,"interval":16,"t":4541,"event":"devicemotion"},{"x":6.5,"y":-3.8000000000000003,"z":-1.9000000000000001,"interval":16,"t":4557,"event":"devicemotion"},{"x":5.9,"y":-3.9000000000000004,"z":-2.1,"interval":16,"t":4574,"event":"devicemotion"},{"x":3.9000000000000004,"y":-3.7,"z":-2.6,"interval":16,"t":4591,"event":"devicemotion"},{"x":3.9000000000000004,"y":-3.7,"z":-2.6,"interval":16,"t":4608,"event":"devicemotion"},{"x":0.7000000000000001,"y":-3,"z":-2.3000000000000003,"interval":16,"t":4624,"event":"devicemotion"},{"x":-1.7000000000000002,"y":-2,"z":-1.7000000000000002,"interval":16,"t":4641,"event":"devicemotion"},{"x":-4.3,"y":-0.30000000000000004,"z":0,"interval":16,"t":4657,"event":"devicemotion"},{"x":-6.4,"y":2,"z":1.9000000000000001,"interval":16,"t":4674,"event":"devicemotion"},{"x":-10.100000000000001,"y":5.7,"z":3.8000000000000003,"interval":16,"t":4691,"event":"devicemotion"},{"x":-10.100000000000001,"y":5.7,"z":3.8000000000000003,"interval":16,"t":4707,"event":"devicemotion"},{"x":-15.4,"y":10.3,"z":3.7,"interval":16,"t":4724,"event":"devicemotion"},{"x":-19.3,"y":13.600000000000001,"z":0.2,"interval":16,"t":4741,"event":"devicemotion"},{"x":-20,"y":14.8,"z":-2.9000000000000004,"interval":16,"t":4757,"event":"devicemotion"},{"x":-17,"y":13.200000000000001,"z":-2.2,"interval":16,"t":4774,"event":"devicemotion"},{"x":-17,"y":13.200000000000001,"z":-2.2,"interval":16,"t":4791,"event":"devicemotion"},{"x":-13,"y":10,"z":-0.6000000000000001,"interval":16,"t":4808,"event":"devicemotion"},{"x":-8.700000000000001,"y":5.9,"z":-0.7000000000000001,"interval":16,"t":4824,"event":"devicemotion"},{"x":-4.7,"y":1.4000000000000001,"z":-1.8,"interval":16,"t":4841,"event":"devicemotion"},{"x":-0.30000000000000004,"y":-2.4000000000000004,"z":-2.3000000000000003,"interval":16,"t":4858,"event":"devicemotion"},{"x":3.1,"y":-5.300000000000001,"z":-2.1,"interval":16,"t":4874,"event":"devicemotion"},{"x":3.1,"y":-5.300000000000001,"z":-2.1,"interval":16,"t":4891,"event":"devicemotion"},{"x":7.9,"y":-8.1,"z":-0.30000000000000004,"interval":16,"t":4908,"event":"devicemotion"},{"x":8,"y":-8.200000000000001,"z":0.5,"interval":16,"t":4924,"event":"devicemotion"},{"x":7.4,"y":-8,"z":0.7000000000000001,"interval":16,"t":4954,"event":"devicemotion"},{"x":7.5,"y":-6.7,"z":0.7000000000000001,"interval":16,"t":4977,"event":"devicemotion"},{"x":7.5,"y":-6.7,"z":0.7000000000000001,"interval":16,"t":4991,"event":"devicemotion"},{"x":8,"y":-5.7,"z":1.1,"interval":16,"t":5007,"event":"devicemotion"},{"x":7.6000000000000005,"y":-4.5,"z":1.5,"interval":16,"t":5024,"event":"devicemotion"},{"x":7.2,"y":-3.4000000000000004,"z":1,"interval":16,"t":5040,"event":"devicemotion"},{"x":6.1000000000000005,"y":-2.1,"z":0.30000000000000004,"interval":16,"t":5057,"event":"devicemotion"},{"x":4,"y":-0.1,"z":0.1,"interval":16,"t":5074,"event":"devicemotion"},{"x":4,"y":-0.1,"z":0.1,"interval":16,"t":5091,"event":"devicemotion"},{"x":0.2,"y":2.4000000000000004,"z":0.1,"interval":16,"t":5109,"event":"devicemotion"},{"x":-4.1000000000000005,"y":5.6000000000000005,"z":-0.30000000000000004,"interval":16,"t":5124,"event":"devicemotion"},{"x":-8.3,"y":8.6,"z":-0.4,"interval":16,"t":5141,"event":"devicemotion"},{"x":-11.3,"y":10.4,"z":1.1,"interval":16,"t":5159,"event":"devicemotion"},{"x":-11.700000000000001,"y":10.4,"z":3.4000000000000004,"interval":16,"t":5174,"event":"devicemotion"},{"x":-11.700000000000001,"y":10.4,"z":3.4000000000000004,"interval":16,"t":5191,"event":"devicemotion"},{"x":-10.5,"y":8.700000000000001,"z":5.800000000000001,"interval":16,"t":5208,"event":"devicemotion"},{"x":-8.3,"y":6.5,"z":6.9,"interval":16,"t":5225,"event":"devicemotion"},{"x":-5.9,"y":3.9000000000000004,"z":5.4,"interval":16,"t":5241,"event":"devicemotion"},{"x":-2.8000000000000003,"y":1.3,"z":2.4000000000000004,"interval":16,"t":5258,"event":"devicemotion"},{"x":-0.2,"y":-0.9,"z":-0.2,"interval":16,"t":5275,"event":"devicemotion"},{"x":-0.2,"y":-0.9,"z":-0.2,"interval":16,"t":5291,"event":"devicemotion"},{"x":1.5,"y":-2.4000000000000004,"z":-1.6,"interval":16,"t":5307,"event":"devicemotion"},{"x":2.9000000000000004,"y":-3.5,"z":-1.9000000000000001,"interval":16,"t":5324,"event":"devicemotion"},{"x":3.2,"y":-4.3,"z":-1.1,"interval":16,"t":5341,"event":"devicemotion"},{"x":4,"y":-4.7,"z":-0.2,"interval":16,"t":5358,"event":"devicemotion"},{"x":4,"y":-4.7,"z":-0.2,"interval":16,"t":5374,"event":"devicemotion"},{"x":4.6000000000000005,"y":-4.800000000000001,"z":-0.4,"interval":16,"t":5391,"event":"devicemotion"},{"x":5.1000000000000005,"y":-4.6000000000000005,"z":-1.1,"interval":16,"t":5407,"event":"devicemotion"},{"x":5,"y":-4.1000000000000005,"z":-1.4000000000000001,"interval":16,"t":5424,"event":"devicemotion"},{"x":4.7,"y":-3.4000000000000004,"z":-1.2000000000000002,"interval":16,"t":5441,"event":"devicemotion"},{"x":4.3,"y":-2.5,"z":-0.9,"interval":16,"t":5458,"event":"devicemotion"},{"x":4.3,"y":-2.5,"z":-0.9,"interval":16,"t":5474,"event":"devicemotion"},{"x":3.7,"y":-1.8,"z":-0.7000000000000001,"interval":16,"t":5491,"event":"devicemotion"},{"x":2.8000000000000003,"y":-1.3,"z":-0.8,"interval":16,"t":5507,"event":"devicemotion"},{"x":2.5,"y":-0.9,"z":-0.9,"interval":16,"t":5524,"event":"devicemotion"},{"x":2.5,"y":-0.7000000000000001,"z":-0.8,"interval":16,"t":5541,"event":"devicemotion"},{"x":2.2,"y":-0.2,"z":-0.30000000000000004,"interval":16,"t":5558,"event":"devicemotion"},{"x":2.2,"y":-0.2,"z":-0.30000000000000004,"interval":16,"t":5574,"event":"devicemotion"},{"x":0.8,"y":0.5,"z":0.1,"interval":16,"t":5591,"event":"devicemotion"},{"x":-1.3,"y":1.9000000000000001,"z":0.30000000000000004,"interval":16,"t":5607,"event":"devicemotion"},{"x":-3.8000000000000003,"y":3.3000000000000003,"z":-0.30000000000000004,"interval":16,"t":5624,"event":"devicemotion"},{"x":-7.6000000000000005,"y":5.5,"z":-1,"interval":16,"t":5640,"event":"devicemotion"},{"x":-10.4,"y":7.4,"z":0,"interval":16,"t":5658,"event":"devicemotion"},{"x":-10.4,"y":7.4,"z":0,"interval":16,"t":5674,"event":"devicemotion"},{"x":-10.8,"y":7.7,"z":1.7000000000000002,"interval":16,"t":5691,"event":"devicemotion"},{"x":-11.100000000000001,"y":7.5,"z":3.3000000000000003,"interval":16,"t":5707,"event":"devicemotion"},{"x":-8.5,"y":4.3,"z":1.5,"interval":16,"t":5725,"event":"devicemotion"},{"x":-5.300000000000001,"y":1.9000000000000001,"z":-0.30000000000000004,"interval":16,"t":5741,"event":"devicemotion"},{"x":-5.300000000000001,"y":1.9000000000000001,"z":-0.30000000000000004,"interval":16,"t":5758,"event":"devicemotion"},{"x":-1,"y":-0.30000000000000004,"z":-2.4000000000000004,"interval":16,"t":5774,"event":"devicemotion"},{"x":2.4000000000000004,"y":-2.4000000000000004,"z":-3.9000000000000004,"interval":16,"t":5790,"event":"devicemotion"},{"x":5,"y":-3.4000000000000004,"z":-5,"interval":16,"t":5807,"event":"devicemotion"},{"x":5.9,"y":-3.7,"z":-4.800000000000001,"interval":16,"t":5825,"event":"devicemotion"},{"x":6.300000000000001,"y":-3.5,"z":-3.9000000000000004,"interval":16,"t":5841,"event":"devicemotion"},{"x":6.300000000000001,"y":-3.5,"z":-3.9000000000000004,"interval":16,"t":5857,"event":"devicemotion"},{"x":6.300000000000001,"y":-3.5,"z":-2.7,"interval":16,"t":5874,"event":"devicemotion"},{"x":5.9,"y":-3.2,"z":-1.5,"interval":16,"t":5891,"event":"devicemotion"},{"x":5,"y":-2.6,"z":-0.2,"interval":16,"t":5907,"event":"devicemotion"},{"x":4.7,"y":-2,"z":0.6000000000000001,"interval":16,"t":5924,"event":"devicemotion"},{"x":4.1000000000000005,"y":-1.6,"z":0.2,"interval":16,"t":5940,"event":"devicemotion"},{"x":3.8000000000000003,"y":-1.5,"z":-0.2,"interval":16,"t":5957,"event":"devicemotion"},{"x":3.8000000000000003,"y":-1.5,"z":-0.2,"interval":16,"t":5974,"event":"devicemotion"},{"x":4.1000000000000005,"y":-1.5,"z":-0.6000000000000001,"interval":16,"t":5991,"event":"devicemotion"},{"x":4,"y":-1.6,"z":-0.9,"interval":16,"t":6007,"event":"devicemotion"},{"x":3.9000000000000004,"y":-1.8,"z":-1.2000000000000002,"interval":16,"t":6024,"event":"devicemotion"},{"x":3.7,"y":-2,"z":-1.6,"interval":16,"t":6041,"event":"devicemotion"},{"x":3.7,"y":-2,"z":-1.6,"interval":16,"t":6057,"event":"devicemotion"},{"x":3.8000000000000003,"y":-2.3000000000000003,"z":-1.6,"interval":16,"t":6074,"event":"devicemotion"},{"x":3.6,"y":-2.3000000000000003,"z":-1.3,"interval":16,"t":6091,"event":"devicemotion"},{"x":2.7,"y":-1.8,"z":-1.1,"interval":16,"t":6107,"event":"devicemotion"},{"x":0.7000000000000001,"y":-1,"z":-1.6,"interval":16,"t":6124,"event":"devicemotion"},{"x":0.7000000000000001,"y":-1,"z":-1.6,"interval":16,"t":6141,"event":"devicemotion"},{"x":-1.6,"y":0.2,"z":-0.7000000000000001,"interval":16,"t":6157,"event":"devicemotion"},{"x":-5.9,"y":2.7,"z":1.5,"interval":16,"t":6174,"event":"devicemotion"},{"x":-10.4,"y":5.2,"z":2.7,"interval":16,"t":6191,"event":"devicemotion"},{"x":-13.200000000000001,"y":6.9,"z":3.4000000000000004,"interval":16,"t":6208,"event":"devicemotion"},{"x":-14,"y":7.6000000000000005,"z":5.4,"interval":16,"t":6224,"event":"devicemotion"},{"x":-14,"y":7.6000000000000005,"z":5.4,"interval":16,"t":6241,"event":"devicemotion"},{"x":-13,"y":7,"z":7.4,"interval":16,"t":6258,"event":"devicemotion"},{"x":-10.8,"y":5.2,"z":8,"interval":16,"t":6274,"event":"devicemotion"},{"x":-8.6,"y":3,"z":6.4,"interval":16,"t":6291,"event":"devicemotion"},{"x":-5.6000000000000005,"y":0.8,"z":4,"interval":16,"t":6307,"event":"devicemotion"},{"x":-2.4000000000000004,"y":-0.9,"z":2,"interval":16,"t":6324,"event":"devicemotion"},{"x":-2.4000000000000004,"y":-0.9,"z":2,"interval":16,"t":6342,"event":"devicemotion"},{"x":0.30000000000000004,"y":-2.3000000000000003,"z":-0.1,"interval":16,"t":6357,"event":"devicemotion"},{"x":2.5,"y":-3.2,"z":-1.7000000000000002,"interval":16,"t":6374,"event":"devicemotion"},{"x":4.2,"y":-3.4000000000000004,"z":-2.5,"interval":16,"t":6391,"event":"devicemotion"},{"x":5,"y":-3.3000000000000003,"z":-2.6,"interval":16,"t":6408,"event":"devicemotion"},{"x":5.7,"y":-3.1,"z":-2.3000000000000003,"interval":16,"t":6425,"event":"devicemotion"},{"x":5.7,"y":-3.1,"z":-2.3000000000000003,"interval":16,"t":6441,"event":"devicemotion"},{"x":5.9,"y":-2.9000000000000004,"z":-1.8,"interval":16,"t":6458,"event":"devicemotion"},{"x":6,"y":-2.4000000000000004,"z":-1.6,"interval":16,"t":6474,"event":"devicemotion"},{"x":6.300000000000001,"y":-2,"z":-1.7000000000000002,"interval":16,"t":6491,"event":"devicemotion"},{"x":6,"y":-1.3,"z":-1.6,"interval":16,"t":6508,"event":"devicemotion"},{"x":5.1000000000000005,"y":-0.7000000000000001,"z":-1.6,"interval":16,"t":6525,"event":"devicemotion"},{"x":5.1000000000000005,"y":-0.7000000000000001,"z":-1.6,"interval":16,"t":6541,"event":"devicemotion"},{"x":3.1,"y":0.4,"z":-0.9,"interval":16,"t":6558,"event":"devicemotion"},{"x":2.4000000000000004,"y":0.8,"z":-0.4,"interval":16,"t":6574,"event":"devicemotion"},{"x":1.9000000000000001,"y":1.1,"z":-0.1,"interval":16,"t":6591,"event":"devicemotion"},{"x":1.3,"y":1.1,"z":-0.4,"interval":16,"t":6607,"event":"devicemotion"},{"x":1.3,"y":1.1,"z":-0.4,"interval":16,"t":6625,"event":"devicemotion"},{"x":0.7000000000000001,"y":1.1,"z":-0.7000000000000001,"interval":16,"t":6641,"event":"devicemotion"},{"x":0.30000000000000004,"y":1.2000000000000002,"z":-0.8,"interval":16,"t":6658,"event":"devicemotion"},{"x":-0.1,"y":1.1,"z":-0.6000000000000001,"interval":16,"t":6674,"event":"devicemotion"},{"x":0.4,"y":1,"z":-0.7000000000000001,"interval":16,"t":6691,"event":"devicemotion"},{"x":0.9,"y":0.9,"z":-0.9,"interval":16,"t":6707,"event":"devicemotion"},{"x":1.6,"y":0.9,"z":-0.5,"interval":16,"t":6724,"event":"devicemotion"},{"x":1.6,"y":0.9,"z":-0.5,"interval":16,"t":6742,"event":"devicemotion"},{"x":1.6,"y":0.9,"z":-0.5,"interval":16,"t":6759,"event":"devicemotion"},{"x":4.7,"y":0.5,"z":0,"interval":16,"t":6774,"event":"devicemotion"},{"x":6.4,"y":-0.2,"z":0.8,"interval":16,"t":6791,"event":"devicemotion"},{"x":7.1000000000000005,"y":-0.8,"z":1.7000000000000002,"interval":16,"t":6808,"event":"devicemotion"},{"x":7.1000000000000005,"y":-0.8,"z":1.7000000000000002,"interval":16,"t":6824,"event":"devicemotion"},{"x":5.9,"y":-1.2000000000000002,"z":0.8,"interval":16,"t":6841,"event":"devicemotion"},{"x":3,"y":-1.4000000000000001,"z":-2.1,"interval":16,"t":6857,"event":"devicemotion"},{"x":-1.4000000000000001,"y":-1.1,"z":-4.3,"interval":16,"t":6874,"event":"devicemotion"},{"x":-6.9,"y":-0.1,"z":-5.1000000000000005,"interval":16,"t":6891,"event":"devicemotion"},{"x":-11.200000000000001,"y":1,"z":-5,"interval":16,"t":6908,"event":"devicemotion"},{"x":-11.200000000000001,"y":1,"z":-5,"interval":16,"t":6925,"event":"devicemotion"},{"x":-12.5,"y":1.1,"z":-3,"interval":16,"t":6941,"event":"devicemotion"},{"x":-11.9,"y":1.2000000000000002,"z":0.1,"interval":16,"t":6957,"event":"devicemotion"},{"x":-11.700000000000001,"y":1.3,"z":1.7000000000000002,"interval":16,"t":6974,"event":"devicemotion"},{"x":-11.600000000000001,"y":0.9,"z":1.2000000000000002,"interval":16,"t":6990,"event":"devicemotion"},{"x":-11,"y":0.1,"z":1.4000000000000001,"interval":16,"t":7008,"event":"devicemotion"},{"x":-11,"y":0.1,"z":1.4000000000000001,"interval":16,"t":7024,"event":"devicemotion"},{"x":-8.9,"y":-0.5,"z":2.4000000000000004,"interval":16,"t":7040,"event":"devicemotion"},{"x":-5.6000000000000005,"y":-1,"z":3.3000000000000003,"interval":16,"t":7058,"event":"devicemotion"},{"x":-2.5,"y":-1.2000000000000002,"z":3.9000000000000004,"interval":16,"t":7074,"event":"devicemotion"},{"x":-0.2,"y":-0.6000000000000001,"z":3.9000000000000004,"interval":16,"t":7091,"event":"devicemotion"},{"x":2.1,"y":0.7000000000000001,"z":2.9000000000000004,"interval":16,"t":7107,"event":"devicemotion"},{"x":2.1,"y":0.7000000000000001,"z":2.9000000000000004,"interval":16,"t":7124,"event":"devicemotion"},{"x":4.6000000000000005,"y":1.7000000000000002,"z":1.3,"interval":16,"t":7141,"event":"devicemotion"},{"x":7.1000000000000005,"y":2.6,"z":0.2,"interval":16,"t":7158,"event":"devicemotion"},{"x":9.200000000000001,"y":3.9000000000000004,"z":-0.4,"interval":16,"t":7174,"event":"devicemotion"},{"x":10.4,"y":4,"z":-0.2,"interval":16,"t":7191,"event":"devicemotion"},{"x":10.4,"y":4,"z":-0.2,"interval":16,"t":7207,"event":"devicemotion"},{"x":11.200000000000001,"y":2.3000000000000003,"z":1.5,"interval":16,"t":7224,"event":"devicemotion"},{"x":11.5,"y":-0.2,"z":3.1,"interval":16,"t":7241,"event":"devicemotion"},{"x":10.5,"y":-1.8,"z":3.3000000000000003,"interval":16,"t":7257,"event":"devicemotion"},{"x":7.4,"y":-2.4000000000000004,"z":2.3000000000000003,"interval":16,"t":7274,"event":"devicemotion"},{"x":3.8000000000000003,"y":-2.5,"z":-0.1,"interval":16,"t":7291,"event":"devicemotion"},{"x":3.8000000000000003,"y":-2.5,"z":-0.1,"interval":16,"t":7309,"event":"devicemotion"},{"x":0.7000000000000001,"y":-2.6,"z":-2.8000000000000003,"interval":16,"t":7324,"event":"devicemotion"},{"x":-2.5,"y":-2.2,"z":-4.800000000000001,"interval":16,"t":7341,"event":"devicemotion"},{"x":-5.4,"y":-1.2000000000000002,"z":-5.2,"interval":16,"t":7358,"event":"devicemotion"},{"x":-6.4,"y":-0.6000000000000001,"z":-3.4000000000000004,"interval":16,"t":7374,"event":"devicemotion"},{"x":-6.4,"y":-0.6000000000000001,"z":-3.4000000000000004,"interval":16,"t":7391,"event":"devicemotion"},{"x":-6.4,"y":-0.30000000000000004,"z":-2.9000000000000004,"interval":16,"t":7408,"event":"devicemotion"},{"x":-7,"y":-0.1,"z":-2.3000000000000003,"interval":16,"t":7424,"event":"devicemotion"},{"x":-7.1000000000000005,"y":0.1,"z":-1.3,"interval":16,"t":7441,"event":"devicemotion"},{"x":-5.7,"y":0,"z":0,"interval":16,"t":7457,"event":"devicemotion"},{"x":-4.5,"y":0.1,"z":0.4,"interval":16,"t":7475,"event":"devicemotion"},{"x":-3,"y":0.30000000000000004,"z":0.30000000000000004,"interval":16,"t":7491,"event":"devicemotion"},{"x":-3,"y":0.30000000000000004,"z":0.30000000000000004,"interval":16,"t":7508,"event":"devicemotion"},{"x":-2.2,"y":0.6000000000000001,"z":-0.4,"interval":16,"t":7524,"event":"devicemotion"},{"x":-1.2000000000000002,"y":1.1,"z":-1.8,"interval":16,"t":7541,"event":"devicemotion"},{"x":0.9,"y":1.4000000000000001,"z":-2.2,"interval":16,"t":7557,"event":"devicemotion"},{"x":3.2,"y":1.9000000000000001,"z":-1.6,"interval":16,"t":7574,"event":"devicemotion"},{"x":3.2,"y":1.9000000000000001,"z":-1.6,"interval":16,"t":7591,"event":"devicemotion"},{"x":5.4,"y":2.5,"z":-0.30000000000000004,"interval":16,"t":7609,"event":"devicemotion"},{"x":7.7,"y":2.7,"z":1.9000000000000001,"interval":16,"t":7624,"event":"devicemotion"},{"x":9.4,"y":2.9000000000000004,"z":3.8000000000000003,"interval":16,"t":7641,"event":"devicemotion"},{"x":9.700000000000001,"y":2.8000000000000003,"z":4.800000000000001,"interval":16,"t":7658,"event":"devicemotion"},{"x":7.800000000000001,"y":1.7000000000000002,"z":4.800000000000001,"interval":16,"t":7674,"event":"devicemotion"},{"x":5.2,"y":0.2,"z":3.8000000000000003,"interval":16,"t":7690,"event":"devicemotion"},{"x":5.2,"y":0.2,"z":3.8000000000000003,"interval":16,"t":7707,"event":"devicemotion"},{"x":2.3000000000000003,"y":-0.9,"z":2.2,"interval":16,"t":7724,"event":"devicemotion"},{"x":-0.30000000000000004,"y":-1.4000000000000001,"z":-0.4,"interval":16,"t":7741,"event":"devicemotion"},{"x":-3.6,"y":-1.5,"z":-2.4000000000000004,"interval":16,"t":7757,"event":"devicemotion"},{"x":-5.4,"y":-1.5,"z":-3.3000000000000003,"interval":16,"t":7774,"event":"devicemotion"},{"x":-5.4,"y":-1.5,"z":-3.3000000000000003,"interval":16,"t":7791,"event":"devicemotion"},{"x":-5.5,"y":-1.7000000000000002,"z":-3.5,"interval":16,"t":7807,"event":"devicemotion"},{"x":-7.4,"y":-1.4000000000000001,"z":-3.3000000000000003,"interval":16,"t":7824,"event":"devicemotion"},{"x":-8.700000000000001,"y":-1,"z":-3.4000000000000004,"interval":16,"t":7840,"event":"devicemotion"},{"x":-8.200000000000001,"y":-1,"z":-3.1,"interval":16,"t":7857,"event":"devicemotion"},{"x":-7,"y":-1.2000000000000002,"z":-2.8000000000000003,"interval":16,"t":7874,"event":"devicemotion"},{"x":-7,"y":-1.2000000000000002,"z":-2.8000000000000003,"interval":16,"t":7890,"event":"devicemotion"},{"x":-6.5,"y":-1,"z":-2.8000000000000003,"interval":16,"t":7907,"event":"devicemotion"},{"x":-5.300000000000001,"y":-0.8,"z":-2.3000000000000003,"interval":16,"t":7924,"event":"devicemotion"},{"x":-3.4000000000000004,"y":-0.8,"z":-1.5,"interval":16,"t":7941,"event":"devicemotion"},{"x":-1.8,"y":0,"z":-1.3,"interval":16,"t":7957,"event":"devicemotion"},{"x":-1.8,"y":0,"z":-1.3,"interval":16,"t":7974,"event":"devicemotion"},{"x":0.5,"y":0.4,"z":-1.2000000000000002,"interval":16,"t":7991,"event":"devicemotion"},{"x":2.3000000000000003,"y":0.8,"z":-1.2000000000000002,"interval":16,"t":8009,"event":"devicemotion"},{"x":3.9000000000000004,"y":1.3,"z":-0.8,"interval":16,"t":8024,"event":"devicemotion"},{"x":5.7,"y":1.4000000000000001,"z":0,"interval":16,"t":8040,"event":"devicemotion"},{"x":7.7,"y":1.1,"z":1.2000000000000002,"interval":16,"t":8057,"event":"devicemotion"},{"x":9.1,"y":1.4000000000000001,"z":2.8000000000000003,"interval":16,"t":8074,"event":"devicemotion"},{"x":9.1,"y":1.4000000000000001,"z":2.8000000000000003,"interval":16,"t":8091,"event":"devicemotion"},{"x":8.8,"y":1.8,"z":4.800000000000001,"interval":16,"t":8108,"event":"devicemotion"},{"x":7.800000000000001,"y":1.3,"z":6.1000000000000005,"interval":16,"t":8124,"event":"devicemotion"},{"x":7.300000000000001,"y":0.2,"z":6.2,"interval":16,"t":8140,"event":"devicemotion"},{"x":5.800000000000001,"y":-1.1,"z":5.300000000000001,"interval":16,"t":8158,"event":"devicemotion"},{"x":5.800000000000001,"y":-1.1,"z":5.300000000000001,"interval":16,"t":8174,"event":"devicemotion"},{"x":4.1000000000000005,"y":-1.4000000000000001,"z":3.8000000000000003,"interval":16,"t":8191,"event":"devicemotion"},{"x":-0.2,"y":-1.5,"z":0.6000000000000001,"interval":16,"t":8208,"event":"devicemotion"},{"x":-2.7,"y":-1.3,"z":-1,"interval":16,"t":8224,"event":"devicemotion"},{"x":-5.300000000000001,"y":-0.30000000000000004,"z":-1.9000000000000001,"interval":16,"t":8240,"event":"devicemotion"},{"x":-7.800000000000001,"y":1.1,"z":-2.3000000000000003,"interval":16,"t":8257,"event":"devicemotion"},{"x":-7.800000000000001,"y":1.1,"z":-2.3000000000000003,"interval":16,"t":8275,"event":"devicemotion"},{"x":-8.8,"y":1.9000000000000001,"z":-2.5,"interval":16,"t":8290,"event":"devicemotion"},{"x":-9.1,"y":2.7,"z":-3,"interval":16,"t":8307,"event":"devicemotion"},{"x":-8.6,"y":2.3000000000000003,"z":-3.7,"interval":16,"t":8324,"event":"devicemotion"},{"x":-7,"y":1.6,"z":-3.8000000000000003,"interval":16,"t":8341,"event":"devicemotion"},{"x":-5.1000000000000005,"y":0.7000000000000001,"z":-2.6,"interval":16,"t":8357,"event":"devicemotion"},{"x":-5.1000000000000005,"y":0.7000000000000001,"z":-2.6,"interval":16,"t":8374,"event":"devicemotion"},{"x":-3,"y":0.2,"z":-1,"interval":16,"t":8391,"event":"devicemotion"},{"x":-1.4000000000000001,"y":-0.7000000000000001,"z":-1.2000000000000002,"interval":16,"t":8408,"event":"devicemotion"},{"x":-0.4,"y":-0.8,"z":-2.2,"interval":16,"t":8424,"event":"devicemotion"},{"x":-0.7000000000000001,"y":-0.6000000000000001,"z":-3.3000000000000003,"interval":16,"t":8441,"event":"devicemotion"},{"x":2.2,"y":-0.30000000000000004,"z":-1.9000000000000001,"interval":16,"t":8458,"event":"devicemotion"},{"x":2.2,"y":-0.30000000000000004,"z":-1.9000000000000001,"interval":16,"t":8474,"event":"devicemotion"},{"x":5.800000000000001,"y":-0.6000000000000001,"z":0.2,"interval":16,"t":8490,"event":"devicemotion"},{"x":8.200000000000001,"y":-0.9,"z":2.3000000000000003,"interval":16,"t":8507,"event":"devicemotion"},{"x":10.700000000000001,"y":-1.2000000000000002,"z":3.7,"interval":16,"t":8524,"event":"devicemotion"},{"x":10.5,"y":-0.7000000000000001,"z":3.6,"interval":16,"t":8541,"event":"devicemotion"},{"x":10.5,"y":-0.7000000000000001,"z":3.6,"interval":16,"t":8558,"event":"devicemotion"},{"x":10.600000000000001,"y":-0.30000000000000004,"z":3.9000000000000004,"interval":16,"t":8574,"event":"devicemotion"},{"x":11,"y":-0.5,"z":4.3,"interval":16,"t":8591,"event":"devicemotion"},{"x":10.100000000000001,"y":-0.7000000000000001,"z":4.6000000000000005,"interval":16,"t":8610,"event":"devicemotion"},{"x":6.6000000000000005,"y":-0.8,"z":4,"interval":16,"t":8625,"event":"devicemotion"},{"x":3.2,"y":-0.8,"z":2.7,"interval":16,"t":8640,"event":"devicemotion"},{"x":3.2,"y":-0.8,"z":2.7,"interval":16,"t":8658,"event":"devicemotion"},{"x":0.2,"y":-1.1,"z":0.8,"interval":16,"t":8674,"event":"devicemotion"},{"x":-2.2,"y":-1.3,"z":-0.6000000000000001,"interval":16,"t":8691,"event":"devicemotion"},{"x":-3.8000000000000003,"y":-1.5,"z":-1.4000000000000001,"interval":16,"t":8708,"event":"devicemotion"},{"x":-6.300000000000001,"y":-1.2000000000000002,"z":-2.1,"interval":16,"t":8724,"event":"devicemotion"},{"x":-7.800000000000001,"y":-1,"z":-2.3000000000000003,"interval":16,"t":8741,"event":"devicemotion"},{"x":-7.800000000000001,"y":-1,"z":-2.3000000000000003,"interval":16,"t":8757,"event":"devicemotion"},{"x":-8.200000000000001,"y":-1,"z":-2.8000000000000003,"interval":16,"t":8774,"event":"devicemotion"},{"x":-10.3,"y":0.1,"z":-3,"interval":16,"t":8791,"event":"devicemotion"},{"x":-12.3,"y":1,"z":-2.9000000000000004,"interval":16,"t":8808,"event":"devicemotion"},{"x":-11.3,"y":1.4000000000000001,"z":-2.3000000000000003,"interval":16,"t":8824,"event":"devicemotion"},{"x":-9.200000000000001,"y":1.5,"z":-1.9000000000000001,"interval":16,"t":8840,"event":"devicemotion"},{"x":-9.200000000000001,"y":1.5,"z":-1.9000000000000001,"interval":16,"t":8857,"event":"devicemotion"},{"x":-7.2,"y":1.6,"z":-1.6,"interval":16,"t":8874,"event":"devicemotion"},{"x":-5.4,"y":1.1,"z":-1.5,"interval":16,"t":8890,"event":"devicemotion"},{"x":-3.3000000000000003,"y":0.5,"z":-1.6,"interval":16,"t":8908,"event":"devicemotion"},{"x":-0.4,"y":0,"z":-2,"interval":16,"t":8924,"event":"devicemotion"},{"x":2.5,"y":-0.30000000000000004,"z":-2.4000000000000004,"interval":16,"t":8941,"event":"devicemotion"},{"x":2.5,"y":-0.30000000000000004,"z":-2.4000000000000004,"interval":16,"t":8957,"event":"devicemotion"},{"x":4.4,"y":0.30000000000000004,"z":-1.8,"interval":16,"t":8974,"event":"devicemotion"},{"x":5.800000000000001,"y":0.9,"z":-1,"interval":16,"t":8990,"event":"devicemotion"},{"x":7.7,"y":0.7000000000000001,"z":-0.2,"interval":16,"t":9008,"event":"devicemotion"},{"x":8.8,"y":0.9,"z":2,"interval":16,"t":9024,"event":"devicemotion"},{"x":8.8,"y":0.9,"z":2,"interval":16,"t":9042,"event":"devicemotion"},{"x":8.6,"y":1.4000000000000001,"z":3.1,"interval":16,"t":9058,"event":"devicemotion"},{"x":8.3,"y":1.1,"z":3.6,"interval":16,"t":9074,"event":"devicemotion"},{"x":8.200000000000001,"y":0.4,"z":4,"interval":16,"t":9092,"event":"devicemotion"},{"x":6.9,"y":-0.4,"z":3.5,"interval":16,"t":9108,"event":"devicemotion"},{"x":4,"y":-0.6000000000000001,"z":2.2,"interval":16,"t":9124,"event":"devicemotion"},{"x":4,"y":-0.6000000000000001,"z":2.2,"interval":16,"t":9141,"event":"devicemotion"},{"x":1.1,"y":-0.9,"z":1.2000000000000002,"interval":16,"t":9158,"event":"devicemotion"},{"x":-0.5,"y":-1.8,"z":0.30000000000000004,"interval":16,"t":9174,"event":"devicemotion"},{"x":-2.8000000000000003,"y":-1.9000000000000001,"z":-0.6000000000000001,"interval":16,"t":9191,"event":"devicemotion"},{"x":-5.2,"y":-1.4000000000000001,"z":-0.6000000000000001,"interval":16,"t":9207,"event":"devicemotion"},{"x":-7,"y":-0.2,"z":-0.7000000000000001,"interval":16,"t":9224,"event":"devicemotion"},{"x":-7,"y":-0.2,"z":-0.7000000000000001,"interval":16,"t":9241,"event":"devicemotion"},{"x":-9.3,"y":1.1,"z":-1.4000000000000001,"interval":16,"t":9257,"event":"devicemotion"},{"x":-10.9,"y":2.5,"z":-2,"interval":16,"t":9274,"event":"devicemotion"},{"x":-10.9,"y":2.9000000000000004,"z":-2.7,"interval":16,"t":9291,"event":"devicemotion"},{"x":-9.9,"y":2.3000000000000003,"z":-3.4000000000000004,"interval":16,"t":9308,"event":"devicemotion"},{"x":-8.5,"y":1.6,"z":-3.2,"interval":16,"t":9324,"event":"devicemotion"},{"x":-8.5,"y":1.6,"z":-3.2,"interval":16,"t":9343,"event":"devicemotion"},{"x":-6.5,"y":0.7000000000000001,"z":-2.3000000000000003,"interval":16,"t":9357,"event":"devicemotion"},{"x":-4.3,"y":0,"z":-2,"interval":16,"t":9374,"event":"devicemotion"},{"x":-2,"y":-0.8,"z":-2.2,"interval":16,"t":9390,"event":"devicemotion"},{"x":0,"y":-1.3,"z":-2.5,"interval":16,"t":9407,"event":"devicemotion"},{"x":1.8,"y":-1.5,"z":-2.7,"interval":16,"t":9424,"event":"devicemotion"},{"x":1.8,"y":-1.5,"z":-2.7,"interval":16,"t":9441,"event":"devicemotion"},{"x":3.1,"y":-1.6,"z":-2.1,"interval":16,"t":9457,"event":"devicemotion"},{"x":4.800000000000001,"y":-1.3,"z":-0.4,"interval":16,"t":9475,"event":"devicemotion"},{"x":5.9,"y":-0.8,"z":1.8,"interval":16,"t":9491,"event":"devicemotion"},{"x":7.7,"y":-0.30000000000000004,"z":3.3000000000000003,"interval":16,"t":9507,"event":"devicemotion"},{"x":7.7,"y":-0.30000000000000004,"z":3.3000000000000003,"interval":16,"t":9524,"event":"devicemotion"},{"x":8.8,"y":0.1,"z":4.2,"interval":16,"t":9541,"event":"devicemotion"},{"x":8.9,"y":-0.1,"z":4.6000000000000005,"interval":16,"t":9557,"event":"devicemotion"},{"x":9.600000000000001,"y":-0.1,"z":5.5,"interval":16,"t":9574,"event":"devicemotion"},{"x":9.8,"y":0.1,"z":5.7,"interval":16,"t":9591,"event":"devicemotion"},{"x":7.7,"y":-0.1,"z":5,"interval":16,"t":9607,"event":"devicemotion"},{"x":7.7,"y":-0.1,"z":5,"interval":16,"t":9624,"event":"devicemotion"},{"x":4.7,"y":-0.4,"z":4.2,"interval":16,"t":9641,"event":"devicemotion"},{"x":2.8000000000000003,"y":-0.7000000000000001,"z":3.1,"interval":16,"t":9657,"event":"devicemotion"},{"x":0.8,"y":-1.1,"z":2.3000000000000003,"interval":16,"t":9674,"event":"devicemotion"},{"x":-2,"y":-0.9,"z":1.3,"interval":16,"t":9690,"event":"devicemotion"},{"x":-5,"y":-0.1,"z":0,"interval":16,"t":9708,"event":"devicemotion"},{"x":-5,"y":-0.1,"z":0,"interval":16,"t":9724,"event":"devicemotion"},{"x":-6.800000000000001,"y":0.8,"z":-1.4000000000000001,"interval":16,"t":9740,"event":"devicemotion"},{"x":-8.5,"y":1.4000000000000001,"z":-2.8000000000000003,"interval":16,"t":9757,"event":"devicemotion"},{"x":-8.9,"y":1.7000000000000002,"z":-4.1000000000000005,"interval":16,"t":9774,"event":"devicemotion"},{"x":-8.200000000000001,"y":1.9000000000000001,"z":-5.1000000000000005,"interval":16,"t":9790,"event":"devicemotion"},{"x":-7.7,"y":1.3,"z":-5.7,"interval":16,"t":9807,"event":"devicemotion"},{"x":-7.7,"y":1.3,"z":-5.7,"interval":16,"t":9824,"event":"devicemotion"},{"x":-7.1000000000000005,"y":0.7000000000000001,"z":-5.7,"interval":16,"t":9840,"event":"devicemotion"},{"x":-4.7,"y":-0.4,"z":-4.4,"interval":16,"t":9857,"event":"devicemotion"},{"x":-2.7,"y":-1,"z":-3.5,"interval":16,"t":9874,"event":"devicemotion"},{"x":-1.5,"y":-1.1,"z":-3.1,"interval":16,"t":9890,"event":"devicemotion"},{"x":-1.5,"y":-1.1,"z":-3.1,"interval":16,"t":9909,"event":"devicemotion"},{"x":-0.7000000000000001,"y":-1.1,"z":-2.7,"interval":16,"t":9924,"event":"devicemotion"},{"x":1,"y":-1.1,"z":-2,"interval":16,"t":9940,"event":"devicemotion"},{"x":3.6,"y":-1.1,"z":-0.5,"interval":16,"t":9957,"event":"devicemotion"},{"x":5.1000000000000005,"y":-0.8,"z":1.4000000000000001,"interval":16,"t":9973,"event":"devicemotion"},{"x":6.5,"y":-0.2,"z":3.2,"interval":16,"t":9990,"event":"devicemotion"},{"x":6.5,"y":0.2,"z":4.3,"interval":16,"t":10007,"event":"devicemotion"},{"x":6.5,"y":0.2,"z":4.3,"interval":16,"t":10024,"event":"devicemotion"},{"x":5.7,"y":0.5,"z":5,"interval":16,"t":10041,"event":"devicemotion"},{"x":5.2,"y":0.7000000000000001,"z":5.2,"interval":16,"t":10058,"event":"devicemotion"},{"x":4.2,"y":0.8,"z":4.800000000000001,"interval":16,"t":10074,"event":"devicemotion"},{"x":3.8000000000000003,"y":0.4,"z":4.1000000000000005,"interval":16,"t":10091,"event":"devicemotion"},{"x":3.8000000000000003,"y":0.4,"z":4.1000000000000005,"interval":16,"t":10107,"event":"devicemotion"},{"x":2.8000000000000003,"y":-0.1,"z":2.8000000000000003,"interval":16,"t":10124,"event":"devicemotion"},{"x":1.9000000000000001,"y":-0.5,"z":1.3,"interval":16,"t":10141,"event":"devicemotion"},{"x":0.7000000000000001,"y":-0.6000000000000001,"z":0,"interval":16,"t":10157,"event":"devicemotion"},{"x":-0.4,"y":-0.30000000000000004,"z":-1,"interval":16,"t":10174,"event":"devicemotion"},{"x":-1.3,"y":-0.2,"z":-1.9000000000000001,"interval":16,"t":10191,"event":"devicemotion"},{"x":-1.3,"y":-0.2,"z":-1.9000000000000001,"interval":16,"t":10208,"event":"devicemotion"},{"x":-1.4000000000000001,"y":-0.1,"z":-2.3000000000000003,"interval":16,"t":10224,"event":"devicemotion"},{"x":-2.1,"y":0.1,"z":-2.2,"interval":16,"t":10241,"event":"devicemotion"},{"x":-1.9000000000000001,"y":0.2,"z":-1.6,"interval":16,"t":10257,"event":"devicemotion"},{"x":-1.7000000000000002,"y":0.30000000000000004,"z":-0.7000000000000001,"interval":16,"t":10274,"event":"devicemotion"},{"x":-1.7000000000000002,"y":0.30000000000000004,"z":-0.7000000000000001,"interval":16,"t":10291,"event":"devicemotion"},{"x":-1.8,"y":0.5,"z":0,"interval":16,"t":10307,"event":"devicemotion"},{"x":-1.6,"y":0.5,"z":0.2,"interval":16,"t":10324,"event":"devicemotion"},{"x":-1.3,"y":0.2,"z":-0.1,"interval":16,"t":10340,"event":"devicemotion"},{"x":-1.2000000000000002,"y":0.4,"z":-0.7000000000000001,"interval":16,"t":10358,"event":"devicemotion"},{"x":-1.4000000000000001,"y":0.6000000000000001,"z":-0.8,"interval":16,"t":10374,"event":"devicemotion"},{"x":-1.5,"y":1,"z":-0.9,"interval":16,"t":10391,"event":"devicemotion"},{"x":-1.5,"y":1,"z":-0.9,"interval":16,"t":10408,"event":"devicemotion"},{"x":-1.7000000000000002,"y":1.7000000000000002,"z":-2.8000000000000003,"interval":16,"t":10424,"event":"devicemotion"},{"x":-0.7000000000000001,"y":1.8,"z":-5.300000000000001,"interval":16,"t":10441,"event":"devicemotion"},{"x":0.7000000000000001,"y":1.5,"z":-8,"interval":16,"t":10457,"event":"devicemotion"},{"x":0.2,"y":1.7000000000000002,"z":-10.5,"interval":16,"t":10474,"event":"devicemotion"},{"x":-0.2,"y":1.9000000000000001,"z":-11.8,"interval":16,"t":10491,"event":"devicemotion"},{"x":-0.2,"y":1.9000000000000001,"z":-11.8,"interval":16,"t":10508,"event":"devicemotion"},{"x":0.30000000000000004,"y":1.2000000000000002,"z":-12.200000000000001,"interval":16,"t":10524,"event":"devicemotion"},{"x":0.4,"y":-0.1,"z":-10.3,"interval":16,"t":10541,"event":"devicemotion"},{"x":-0.30000000000000004,"y":-1.2000000000000002,"z":-4.9,"interval":16,"t":10557,"event":"devicemotion"},{"x":-2.6,"y":-2.9000000000000004,"z":2.1,"interval":16,"t":10574,"event":"devicemotion"},{"x":-2.6,"y":-2.9000000000000004,"z":2.1,"interval":16,"t":10591,"event":"devicemotion"},{"x":-2.3000000000000003,"y":-4.3,"z":10.200000000000001,"interval":16,"t":10607,"event":"devicemotion"},{"x":1.2000000000000002,"y":-5.7,"z":15.8,"interval":16,"t":10624,"event":"devicemotion"},{"x":-0.6000000000000001,"y":-5.1000000000000005,"z":16.900000000000002,"interval":16,"t":10640,"event":"devicemotion"},{"x":1.8,"y":-4.6000000000000005,"z":17.1,"interval":16,"t":10657,"event":"devicemotion"},{"x":1.8,"y":-4.6000000000000005,"z":17.1,"interval":16,"t":10674,"event":"devicemotion"},{"x":2.9000000000000004,"y":-3.7,"z":16.400000000000002,"interval":16,"t":10691,"event":"devicemotion"},{"x":1.1,"y":-1.8,"z":13.4,"interval":16,"t":10707,"event":"devicemotion"},{"x":-0.5,"y":-0.30000000000000004,"z":9.200000000000001,"interval":16,"t":10724,"event":"devicemotion"},{"x":-1,"y":0,"z":5,"interval":16,"t":10741,"event":"devicemotion"},{"x":-1.3,"y":0.2,"z":2.8000000000000003,"interval":16,"t":10766,"event":"devicemotion"},{"x":-0.6000000000000001,"y":0.4,"z":2.6,"interval":16,"t":10773,"event":"devicemotion"},{"x":-0.6000000000000001,"y":0.4,"z":2.6,"interval":16,"t":10792,"event":"devicemotion"},{"x":-0.9,"y":0.8,"z":-0.7000000000000001,"interval":16,"t":10807,"event":"devicemotion"},{"x":-1.8,"y":1.9000000000000001,"z":-5.1000000000000005,"interval":16,"t":10824,"event":"devicemotion"},{"x":-1.6,"y":2.7,"z":-8.6,"interval":16,"t":10840,"event":"devicemotion"},{"x":-2.6,"y":3.9000000000000004,"z":-11.5,"interval":16,"t":10857,"event":"devicemotion"},{"x":-2.6,"y":3.9000000000000004,"z":-11.5,"interval":16,"t":10874,"event":"devicemotion"},{"x":-2.4000000000000004,"y":4.4,"z":-13.9,"interval":16,"t":10891,"event":"devicemotion"},{"x":-2.7,"y":4.9,"z":-14.5,"interval":16,"t":10908,"event":"devicemotion"},{"x":-2.5,"y":4.6000000000000005,"z":-15.5,"interval":16,"t":10924,"event":"devicemotion"},{"x":-1.7000000000000002,"y":3.7,"z":-18,"interval":16,"t":10941,"event":"devicemotion"},{"x":-2,"y":3.3000000000000003,"z":-20.3,"interval":16,"t":10957,"event":"devicemotion"},{"x":-2,"y":3.3000000000000003,"z":-20.3,"interval":16,"t":10974,"event":"devicemotion"},{"x":-2,"y":1.6,"z":-18.900000000000002,"interval":16,"t":10991,"event":"devicemotion"},{"x":-1.8,"y":-0.1,"z":-11.100000000000001,"interval":16,"t":11007,"event":"devicemotion"},{"x":0,"y":-1.7000000000000002,"z":-2.5,"interval":16,"t":11024,"event":"devicemotion"},{"x":1.1,"y":-3.1,"z":5.9,"interval":16,"t":11041,"event":"devicemotion"},{"x":0.9,"y":-3.1,"z":12.3,"interval":16,"t":11057,"event":"devicemotion"},{"x":0.9,"y":-3.1,"z":12.3,"interval":16,"t":11074,"event":"devicemotion"},{"x":3.2,"y":-3.4000000000000004,"z":10.100000000000001,"interval":16,"t":11090,"event":"devicemotion"},{"x":0.30000000000000004,"y":-2.4000000000000004,"z":9.4,"interval":16,"t":11107,"event":"devicemotion"},{"x":0,"y":-2.5,"z":13.100000000000001,"interval":16,"t":11124,"event":"devicemotion"},{"x":-0.1,"y":-3,"z":17.1,"interval":16,"t":11141,"event":"devicemotion"},{"x":1.4000000000000001,"y":-4.2,"z":21.400000000000002,"interval":16,"t":11157,"event":"devicemotion"},{"x":1.4000000000000001,"y":-4.2,"z":21.400000000000002,"interval":16,"t":11174,"event":"devicemotion"},{"x":4.5,"y":-4.800000000000001,"z":22.900000000000002,"interval":16,"t":11191,"event":"devicemotion"},{"x":5.1000000000000005,"y":-3.8000000000000003,"z":19.5,"interval":16,"t":11207,"event":"devicemotion"},{"x":1.8,"y":-2,"z":10,"interval":16,"t":11224,"event":"devicemotion"},{"x":-1.6,"y":-0.1,"z":1.7000000000000002,"interval":16,"t":11241,"event":"devicemotion"},{"x":-2.6,"y":0.9,"z":-4.3,"interval":16,"t":11257,"event":"devicemotion"},{"x":-2.6,"y":0.9,"z":-4.3,"interval":16,"t":11274,"event":"devicemotion"},{"x":-1.9000000000000001,"y":0.7000000000000001,"z":-6,"interval":16,"t":11290,"event":"devicemotion"},{"x":-1.1,"y":0,"z":-6.4,"interval":16,"t":11307,"event":"devicemotion"},{"x":-1.8,"y":0.7000000000000001,"z":-7.2,"interval":16,"t":11324,"event":"devicemotion"},{"x":-1.4000000000000001,"y":1.9000000000000001,"z":-9.600000000000001,"interval":16,"t":11341,"event":"devicemotion"},{"x":-1.2000000000000002,"y":3.3000000000000003,"z":-13.700000000000001,"interval":16,"t":11358,"event":"devicemotion"},{"x":-1.2000000000000002,"y":3.3000000000000003,"z":-13.700000000000001,"interval":16,"t":11374,"event":"devicemotion"},{"x":-1.8,"y":4.7,"z":-17.400000000000002,"interval":16,"t":11392,"event":"devicemotion"},{"x":-0.9,"y":4.7,"z":-21.700000000000003,"interval":16,"t":11408,"event":"devicemotion"},{"x":0.6000000000000001,"y":3.7,"z":-24.700000000000003,"interval":16,"t":11424,"event":"devicemotion"},{"x":-0.8,"y":2.6,"z":-22.6,"interval":16,"t":11441,"event":"devicemotion"},{"x":-0.8,"y":2.6,"z":-22.6,"interval":16,"t":11458,"event":"devicemotion"},{"x":-1.7000000000000002,"y":0.5,"z":-14.9,"interval":16,"t":11474,"event":"devicemotion"},{"x":-0.8,"y":-1.9000000000000001,"z":-6.1000000000000005,"interval":16,"t":11491,"event":"devicemotion"},{"x":-2,"y":-3.7,"z":9.3,"interval":16,"t":11508,"event":"devicemotion"},{"x":0.7000000000000001,"y":-4.3,"z":12.700000000000001,"interval":16,"t":11524,"event":"devicemotion"},{"x":3.2,"y":-4.5,"z":13,"interval":16,"t":11540,"event":"devicemotion"},{"x":3.2,"y":-4.5,"z":13,"interval":16,"t":11557,"event":"devicemotion"},{"x":3.4000000000000004,"y":-3.7,"z":12,"interval":16,"t":11574,"event":"devicemotion"},{"x":4,"y":-4.5,"z":16.8,"interval":16,"t":11590,"event":"devicemotion"},{"x":2.7,"y":-4.6000000000000005,"z":24.8,"interval":16,"t":11608,"event":"devicemotion"},{"x":5.2,"y":-3.9000000000000004,"z":27.400000000000002,"interval":16,"t":11624,"event":"devicemotion"},{"x":4.4,"y":-1.7000000000000002,"z":20.3,"interval":16,"t":11641,"event":"devicemotion"},{"x":0.2,"y":1.2000000000000002,"z":9.600000000000001,"interval":16,"t":11662,"event":"devicemotion"},{"x":0.2,"y":1.2000000000000002,"z":9.600000000000001,"interval":16,"t":11674,"event":"devicemotion"},{"x":-2.1,"y":2.7,"z":1.3,"interval":16,"t":11690,"event":"devicemotion"},{"x":-3.1,"y":2.7,"z":-2.1,"interval":16,"t":11707,"event":"devicemotion"},{"x":-3.4000000000000004,"y":1.8,"z":-3.6,"interval":16,"t":11724,"event":"devicemotion"},{"x":-2.7,"y":1.2000000000000002,"z":-4.800000000000001,"interval":16,"t":11740,"event":"devicemotion"},{"x":-2.7,"y":1.2000000000000002,"z":-4.800000000000001,"interval":16,"t":11757,"event":"devicemotion"},{"x":-2.5,"y":1,"z":-7,"interval":16,"t":11774,"event":"devicemotion"},{"x":-1.4000000000000001,"y":1.2000000000000002,"z":-8.9,"interval":16,"t":11793,"event":"devicemotion"},{"x":-0.30000000000000004,"y":1.6,"z":-11.100000000000001,"interval":16,"t":11807,"event":"devicemotion"},{"x":0,"y":2.7,"z":-13,"interval":16,"t":11823,"event":"devicemotion"},{"x":0,"y":4.1000000000000005,"z":-16.400000000000002,"interval":16,"t":11840,"event":"devicemotion"},{"x":0,"y":4.1000000000000005,"z":-16.400000000000002,"interval":16,"t":11857,"event":"devicemotion"},{"x":0.2,"y":4.2,"z":-20.200000000000003,"interval":16,"t":11873,"event":"devicemotion"},{"x":0.9,"y":3.7,"z":-21.900000000000002,"interval":16,"t":11890,"event":"devicemotion"},{"x":-0.8,"y":2.7,"z":-19.3,"interval":16,"t":11907,"event":"devicemotion"},{"x":-2.6,"y":0.8,"z":-11.9,"interval":16,"t":11924,"event":"devicemotion"},{"x":-2.6,"y":0.8,"z":-11.9,"interval":16,"t":11941,"event":"devicemotion"},{"x":-1.1,"y":-1.5,"z":-2.7,"interval":16,"t":11957,"event":"devicemotion"},{"x":0.9,"y":-3.4000000000000004,"z":5.4,"interval":16,"t":11974,"event":"devicemotion"},{"x":1.8,"y":-3.7,"z":10.700000000000001,"interval":16,"t":11990,"event":"devicemotion"},{"x":3,"y":-4.1000000000000005,"z":12.600000000000001,"interval":16,"t":12007,"event":"devicemotion"},{"x":4.3,"y":-4.7,"z":14.4,"interval":16,"t":12023,"event":"devicemotion"},{"x":5.6000000000000005,"y":-5.1000000000000005,"z":19.1,"interval":16,"t":12040,"event":"devicemotion"},{"x":5.6000000000000005,"y":-5.1000000000000005,"z":19.1,"interval":16,"t":12057,"event":"devicemotion"},{"x":4.9,"y":-4.6000000000000005,"z":22.200000000000003,"interval":16,"t":12073,"event":"devicemotion"},{"x":3.1,"y":-2.7,"z":21.8,"interval":16,"t":12090,"event":"devicemotion"},{"x":1.7000000000000002,"y":-0.8,"z":16.5,"interval":16,"t":12107,"event":"devicemotion"},{"x":-0.9,"y":0.9,"z":8.6,"interval":16,"t":12124,"event":"devicemotion"},{"x":-0.9,"y":0.9,"z":8.6,"interval":16,"t":12142,"event":"devicemotion"},{"x":-3,"y":2.1,"z":2.6,"interval":16,"t":12157,"event":"devicemotion"},{"x":-4,"y":2.2,"z":-1.4000000000000001,"interval":16,"t":12173,"event":"devicemotion"},{"x":-4.5,"y":1.8,"z":-3.8000000000000003,"interval":16,"t":12191,"event":"devicemotion"},{"x":-4.2,"y":1.4000000000000001,"z":-5.1000000000000005,"interval":16,"t":12208,"event":"devicemotion"},{"x":-2.9000000000000004,"y":0.9,"z":-6.1000000000000005,"interval":16,"t":12224,"event":"devicemotion"},{"x":-2.9000000000000004,"y":0.9,"z":-6.1000000000000005,"interval":16,"t":12240,"event":"devicemotion"},{"x":-2.3000000000000003,"y":1,"z":-7.6000000000000005,"interval":16,"t":12257,"event":"devicemotion"},{"x":-1.7000000000000002,"y":1.6,"z":-10.700000000000001,"interval":16,"t":12274,"event":"devicemotion"},{"x":-2,"y":2.5,"z":-13.9,"interval":16,"t":12290,"event":"devicemotion"},{"x":-1.2000000000000002,"y":3.6,"z":-16.900000000000002,"interval":16,"t":12307,"event":"devicemotion"},{"x":-1.2000000000000002,"y":3.6,"z":-16.900000000000002,"interval":16,"t":12324,"event":"devicemotion"},{"x":-0.5,"y":4,"z":-21.700000000000003,"interval":16,"t":12340,"event":"devicemotion"},{"x":-1.8,"y":3,"z":-19.6,"interval":16,"t":12357,"event":"devicemotion"},{"x":-2.1,"y":1.2000000000000002,"z":-12.4,"interval":16,"t":12374,"event":"devicemotion"},{"x":-1.6,"y":-0.7000000000000001,"z":-5.2,"interval":16,"t":12391,"event":"devicemotion"},{"x":-0.9,"y":-1.5,"z":1.2000000000000002,"interval":16,"t":12407,"event":"devicemotion"},{"x":-0.9,"y":-1.5,"z":1.2000000000000002,"interval":16,"t":12424,"event":"devicemotion"},{"x":-0.2,"y":-2.7,"z":6.5,"interval":16,"t":12441,"event":"devicemotion"},{"x":0.6000000000000001,"y":-3.3000000000000003,"z":9.700000000000001,"interval":16,"t":12457,"event":"devicemotion"},{"x":2.4000000000000004,"y":-3.5,"z":10.200000000000001,"interval":16,"t":12474,"event":"devicemotion"},{"x":5,"y":-4.6000000000000005,"z":11.9,"interval":16,"t":12490,"event":"devicemotion"},{"x":6.2,"y":-4.5,"z":13.700000000000001,"interval":16,"t":12507,"event":"devicemotion"},{"x":6.2,"y":-4.5,"z":13.700000000000001,"interval":16,"t":12524,"event":"devicemotion"},{"x":4,"y":-4.1000000000000005,"z":17,"interval":16,"t":12541,"event":"devicemotion"},{"x":3.3000000000000003,"y":-3.6,"z":20.3,"interval":16,"t":12557,"event":"devicemotion"},{"x":3.8000000000000003,"y":-2.8000000000000003,"z":20.200000000000003,"interval":16,"t":12573,"event":"devicemotion"},{"x":3.7,"y":-1.6,"z":17.3,"interval":16,"t":12591,"event":"devicemotion"},{"x":2.6,"y":-0.5,"z":12.4,"interval":16,"t":12608,"event":"devicemotion"},{"x":2.6,"y":-0.5,"z":12.4,"interval":16,"t":12625,"event":"devicemotion"},{"x":0.9,"y":0.6000000000000001,"z":7,"interval":16,"t":12640,"event":"devicemotion"},{"x":-0.30000000000000004,"y":0.6000000000000001,"z":2.7,"interval":16,"t":12657,"event":"devicemotion"},{"x":-0.8,"y":0.2,"z":-0.1,"interval":16,"t":12674,"event":"devicemotion"},{"x":-2.2,"y":0.30000000000000004,"z":-3.2,"interval":16,"t":12690,"event":"devicemotion"},{"x":-2.7,"y":0.8,"z":-6.7,"interval":16,"t":12710,"event":"devicemotion"},{"x":-2.7,"y":0.8,"z":-6.7,"interval":16,"t":12724,"event":"devicemotion"},{"x":-2.9000000000000004,"y":1.5,"z":-9.5,"interval":16,"t":12740,"event":"devicemotion"},{"x":-2.5,"y":2,"z":-11.9,"interval":16,"t":12758,"event":"devicemotion"},{"x":-1.7000000000000002,"y":2.8000000000000003,"z":-13.9,"interval":16,"t":12774,"event":"devicemotion"},{"x":-1,"y":3.9000000000000004,"z":-16.6,"interval":16,"t":12790,"event":"devicemotion"},{"x":-1.1,"y":4.7,"z":-19.1,"interval":16,"t":12809,"event":"devicemotion"},{"x":-1.1,"y":4.7,"z":-19.1,"interval":16,"t":12825,"event":"devicemotion"},{"x":-2.4000000000000004,"y":4.9,"z":-21.5,"interval":16,"t":12841,"event":"devicemotion"},{"x":-3.2,"y":4.2,"z":-20.6,"interval":16,"t":12857,"event":"devicemotion"},{"x":-2.5,"y":1.8,"z":-15.200000000000001,"interval":16,"t":12874,"event":"devicemotion"},{"x":-1.7000000000000002,"y":-0.4,"z":-7.800000000000001,"interval":16,"t":12890,"event":"devicemotion"},{"x":0.8,"y":-2.3000000000000003,"z":-1.2000000000000002,"interval":16,"t":12907,"event":"devicemotion"},{"x":0.8,"y":-2.3000000000000003,"z":-1.2000000000000002,"interval":16,"t":12925,"event":"devicemotion"},{"x":2.2,"y":-3.6,"z":4.6000000000000005,"interval":16,"t":12940,"event":"devicemotion"},{"x":2.1,"y":-3.5,"z":8.9,"interval":16,"t":12957,"event":"devicemotion"},{"x":1.8,"y":-2.5,"z":9,"interval":16,"t":12974,"event":"devicemotion"},{"x":2.5,"y":-2.2,"z":7.800000000000001,"interval":16,"t":12990,"event":"devicemotion"},{"x":2.5,"y":-2.2,"z":7.800000000000001,"interval":16,"t":13008,"event":"devicemotion"},{"x":3.7,"y":-3,"z":10,"interval":16,"t":13024,"event":"devicemotion"},{"x":3.9000000000000004,"y":-3.9000000000000004,"z":13.8,"interval":16,"t":13040,"event":"devicemotion"},{"x":4.3,"y":-4.6000000000000005,"z":18,"interval":16,"t":13057,"event":"devicemotion"},{"x":5.2,"y":-5,"z":21.3,"interval":16,"t":13073,"event":"devicemotion"},{"x":4.800000000000001,"y":-3.8000000000000003,"z":21.400000000000002,"interval":16,"t":13091,"event":"devicemotion"},{"x":4.800000000000001,"y":-3.8000000000000003,"z":21.400000000000002,"interval":16,"t":13109,"event":"devicemotion"},{"x":2.6,"y":-1.5,"z":16.2,"interval":16,"t":13124,"event":"devicemotion"},{"x":0.1,"y":0.30000000000000004,"z":8.4,"interval":16,"t":13140,"event":"devicemotion"},{"x":-1.8,"y":1.9000000000000001,"z":-0.30000000000000004,"interval":16,"t":13157,"event":"devicemotion"},{"x":-2.5,"y":1.9000000000000001,"z":-1.6,"interval":16,"t":13174,"event":"devicemotion"},{"x":-2.5,"y":1.9000000000000001,"z":-1.6,"interval":16,"t":13191,"event":"devicemotion"},{"x":-3.2,"y":1.7000000000000002,"z":-2.7,"interval":16,"t":13208,"event":"devicemotion"},{"x":-3.4000000000000004,"y":1.9000000000000001,"z":-5,"interval":16,"t":13224,"event":"devicemotion"},{"x":-2.9000000000000004,"y":2.3000000000000003,"z":-8.1,"interval":16,"t":13240,"event":"devicemotion"},{"x":-2.8000000000000003,"y":3.2,"z":-12,"interval":16,"t":13257,"event":"devicemotion"},{"x":-2.8000000000000003,"y":4.2,"z":-14.600000000000001,"interval":16,"t":13274,"event":"devicemotion"},{"x":-2.8000000000000003,"y":4.2,"z":-14.600000000000001,"interval":16,"t":13290,"event":"devicemotion"},{"x":-3.5,"y":5.1000000000000005,"z":-16.6,"interval":16,"t":13308,"event":"devicemotion"},{"x":-2.7,"y":5.1000000000000005,"z":-18.2,"interval":16,"t":13324,"event":"devicemotion"},{"x":-2.8000000000000003,"y":4.3,"z":-18.5,"interval":16,"t":13340,"event":"devicemotion"},{"x":-3,"y":3.1,"z":-16.1,"interval":16,"t":13357,"event":"devicemotion"},{"x":-3.3000000000000003,"y":1.4000000000000001,"z":-11.600000000000001,"interval":16,"t":13374,"event":"devicemotion"},{"x":-3.3000000000000003,"y":1.4000000000000001,"z":-11.600000000000001,"interval":16,"t":13392,"event":"devicemotion"},{"x":-2.1,"y":0,"z":-7,"interval":16,"t":13407,"event":"devicemotion"},{"x":-0.30000000000000004,"y":-1.4000000000000001,"z":-2.5,"interval":16,"t":13424,"event":"devicemotion"},{"x":2.1,"y":-3,"z":2.1,"interval":16,"t":13440,"event":"devicemotion"},{"x":1.9000000000000001,"y":-4.3,"z":7.1000000000000005,"interval":16,"t":13457,"event":"devicemotion"},{"x":-0.30000000000000004,"y":-5.5,"z":11.9,"interval":16,"t":13474,"event":"devicemotion"},{"x":-0.30000000000000004,"y":-5.5,"z":11.9,"interval":16,"t":13491,"event":"devicemotion"},{"x":3,"y":-8.200000000000001,"z":18,"interval":16,"t":13507,"event":"devicemotion"},{"x":7.5,"y":-8.5,"z":23.400000000000002,"interval":16,"t":13524,"event":"devicemotion"},{"x":8.200000000000001,"y":-6.5,"z":23.3,"interval":16,"t":13541,"event":"devicemotion"},{"x":6.1000000000000005,"y":-3,"z":19.8,"interval":16,"t":13557,"event":"devicemotion"},{"x":6.1000000000000005,"y":-3,"z":19.8,"interval":16,"t":13573,"event":"devicemotion"},{"x":3.9000000000000004,"y":-0.1,"z":12.100000000000001,"interval":16,"t":13590,"event":"devicemotion"},{"x":-0.1,"y":2.6,"z":5.5,"interval":16,"t":13607,"event":"devicemotion"},{"x":-3.2,"y":4.4,"z":0.4,"interval":16,"t":13624,"event":"devicemotion"},{"x":-4.1000000000000005,"y":5,"z":-2.8000000000000003,"interval":16,"t":13641,"event":"devicemotion"},{"x":-4.1000000000000005,"y":5,"z":-4.3,"interval":16,"t":13657,"event":"devicemotion"},{"x":-4.1000000000000005,"y":5,"z":-4.3,"interval":16,"t":13675,"event":"devicemotion"},{"x":-3.2,"y":4.3,"z":-5,"interval":16,"t":13691,"event":"devicemotion"},{"x":-1.4000000000000001,"y":3.6,"z":-4.9,"interval":16,"t":13708,"event":"devicemotion"},{"x":-1.1,"y":3.1,"z":-5.7,"interval":16,"t":13724,"event":"devicemotion"},{"x":-1,"y":2.9000000000000004,"z":-6.9,"interval":16,"t":13740,"event":"devicemotion"},{"x":-0.8,"y":2.7,"z":-8.5,"interval":16,"t":13757,"event":"devicemotion"},{"x":-0.8,"y":2.7,"z":-8.5,"interval":16,"t":13774,"event":"devicemotion"},{"x":-0.2,"y":2.3000000000000003,"z":-9.3,"interval":16,"t":13792,"event":"devicemotion"},{"x":0.6000000000000001,"y":1.5,"z":-9.200000000000001,"interval":16,"t":13808,"event":"devicemotion"},{"x":1.3,"y":1,"z":-7.800000000000001,"interval":16,"t":13824,"event":"devicemotion"},{"x":1.4000000000000001,"y":0.30000000000000004,"z":-6.1000000000000005,"interval":16,"t":13840,"event":"devicemotion"},{"x":1.7000000000000002,"y":-0.30000000000000004,"z":-4,"interval":16,"t":13857,"event":"devicemotion"},{"x":1.7000000000000002,"y":-0.30000000000000004,"z":-4,"interval":16,"t":13874,"event":"devicemotion"},{"x":2.2,"y":-0.9,"z":-2,"interval":16,"t":13893,"event":"devicemotion"},{"x":2.6,"y":-1.6,"z":-0.7000000000000001,"interval":16,"t":13907,"event":"devicemotion"},{"x":3.6,"y":-2.1,"z":0.2,"interval":16,"t":13924,"event":"devicemotion"},{"x":3.8000000000000003,"y":-2.3000000000000003,"z":1.6,"interval":16,"t":13940,"event":"devicemotion"},{"x":3.1,"y":-2.4000000000000004,"z":2.5,"interval":16,"t":13957,"event":"devicemotion"},{"x":3.1,"y":-2.4000000000000004,"z":2.5,"interval":16,"t":13974,"event":"devicemotion"},{"x":2.5,"y":-3,"z":4,"interval":16,"t":13990,"event":"devicemotion"},{"x":1,"y":-2.8000000000000003,"z":5.2,"interval":16,"t":14007,"event":"devicemotion"},{"x":-2.2,"y":-1.7000000000000002,"z":7.800000000000001,"interval":16,"t":14024,"event":"devicemotion"},{"x":-2.7,"y":-0.9,"z":8.1,"interval":16,"t":14040,"event":"devicemotion"},{"x":-1.2000000000000002,"y":-0.9,"z":5.1000000000000005,"interval":16,"t":14057,"event":"devicemotion"},{"x":-1.2000000000000002,"y":-0.9,"z":5.1000000000000005,"interval":16,"t":14074,"event":"devicemotion"},{"x":-2.4000000000000004,"y":-0.4,"z":4.800000000000001,"interval":16,"t":14090,"event":"devicemotion"},{"x":-1.8,"y":-0.7000000000000001,"z":5.800000000000001,"interval":16,"t":14107,"event":"devicemotion"},{"x":-0.2,"y":-1.2000000000000002,"z":5.7,"interval":16,"t":14124,"event":"devicemotion"},{"x":-1.6,"y":-1.2000000000000002,"z":6,"interval":16,"t":14141,"event":"devicemotion"},{"x":-2.8000000000000003,"y":-0.5,"z":7.300000000000001,"interval":16,"t":14157,"event":"devicemotion"},{"x":-2.8000000000000003,"y":-0.5,"z":7.300000000000001,"interval":16,"t":14174,"event":"devicemotion"},{"x":-3.8000000000000003,"y":0.1,"z":8.3,"interval":16,"t":14191,"event":"devicemotion"},{"x":-3.9000000000000004,"y":0.7000000000000001,"z":8.1,"interval":16,"t":14208,"event":"devicemotion"},{"x":-3.6,"y":1.1,"z":6.800000000000001,"interval":16,"t":14224,"event":"devicemotion"},{"x":-2.3000000000000003,"y":0.6000000000000001,"z":5.4,"interval":16,"t":14241,"event":"devicemotion"},{"x":-2.3000000000000003,"y":0.6000000000000001,"z":5.4,"interval":16,"t":14257,"event":"devicemotion"},{"x":-1.8,"y":0.2,"z":4.7,"interval":16,"t":14274,"event":"devicemotion"},{"x":-4.4,"y":-0.1,"z":4.5,"interval":16,"t":14290,"event":"devicemotion"},{"x":-3.2,"y":0.4,"z":4,"interval":16,"t":14308,"event":"devicemotion"},{"x":0.1,"y":1.3,"z":3.3000000000000003,"interval":16,"t":14324,"event":"devicemotion"},{"x":0.4,"y":0.2,"z":2.1,"interval":16,"t":14340,"event":"devicemotion"},{"x":0.4,"y":0.2,"z":2.1,"interval":16,"t":14358,"event":"devicemotion"},{"x":0.7000000000000001,"y":-0.8,"z":0.5,"interval":16,"t":14374,"event":"devicemotion"},{"x":0.7000000000000001,"y":-0.2,"z":-0.1,"interval":16,"t":14390,"event":"devicemotion"},{"x":1,"y":0.5,"z":-0.6000000000000001,"interval":16,"t":14408,"event":"devicemotion"},{"x":1.8,"y":0.7000000000000001,"z":-1.4000000000000001,"interval":16,"t":14424,"event":"devicemotion"},{"x":1.8,"y":1.3,"z":-1.2000000000000002,"interval":16,"t":14440,"event":"devicemotion"},{"x":1.8,"y":1.3,"z":-1.2000000000000002,"interval":16,"t":14457,"event":"devicemotion"},{"x":0.9,"y":1.6,"z":-0.8,"interval":16,"t":14474,"event":"devicemotion"},{"x":0.9,"y":1.2000000000000002,"z":-0.8,"interval":16,"t":14490,"event":"devicemotion"},{"x":1.2000000000000002,"y":1,"z":-0.4,"interval":16,"t":14508,"event":"devicemotion"},{"x":1.6,"y":1,"z":0.2,"interval":16,"t":14523,"event":"devicemotion"},{"x":1.2000000000000002,"y":1.1,"z":0.4,"interval":16,"t":14540,"event":"devicemotion"},{"x":1.2000000000000002,"y":1.1,"z":0.4,"interval":16,"t":14558,"event":"devicemotion"},{"x":0.8,"y":0.9,"z":0.30000000000000004,"interval":16,"t":14573,"event":"devicemotion"},{"x":1,"y":1,"z":-0.2,"interval":16,"t":14591,"event":"devicemotion"},{"x":3.7,"y":1.1,"z":-4.800000000000001,"interval":16,"t":14607,"event":"devicemotion"},{"x":2.7,"y":1.6,"z":-0.7000000000000001,"interval":16,"t":14624,"event":"devicemotion"},{"x":0.9,"y":0.30000000000000004,"z":2.6,"interval":16,"t":14641,"event":"devicemotion"},{"x":0.9,"y":0.30000000000000004,"z":2.6,"interval":16,"t":14657,"event":"devicemotion"}]}]